File: Differential scanning calorimetry/12OCB Squalane/12OCB SqA wt fraction 952.txt
Filename	12OCBSqA952
Instrument name	DSC2A-00101 (192.168.10.4)
Operator	Yuma
rundate	3/15/2021
Sample name	12OCBSqA952
proceduresegments	Data Off ; Equilibrate 150.00 °C; Isothermal 10.0 min; Equilibrate 100.00 °C; Isothermal 5.0 min; Data On ; Ramp 1.00 °C/min to 0.00 °C; Ramp 5.00 °C/min to 150.00 °C; Data Off ; Isothermal 10.0 min; Modulate Temperature 1.00 °C for 60.0 s; Equilibrate 100.00 °C; Isothermal 10.0 min; Data On ; Ramp 1.00 °C/min to 0.00 °C; Data Off ; Equilibrate 0.00 °C; Modulate Temperature 1.00 °C for 60.0 s; Isothermal 5.0 min; Data On ; Ramp 3.00 °C/min to 100.00 °C; Jump 30.00 °C
[step]
Ramp 1.00 °C/min to 0.00 °C
Time	Temperature	Heat Flow (Normalized)
s	°C	W/g
0.00000	99.85	1.48321e-3
4.00000	99.84	-1.28732e-5
8.00000	99.82	-1.12030e-3
12.0000	99.78	9.59552e-3
16.0000	99.72	0.0180564
20.0000	99.67	0.0245740
24.0000	99.61	0.0285887
28.0000	99.54	0.0314717
32.0000	99.48	0.0331215
36.0000	99.41	0.0340106
40.0000	99.35	0.0346438
44.0000	99.28	0.0351007
48.0000	99.21	0.0355486
52.0000	99.15	0.0359393
56.0000	99.08	0.0362651
60.0000	99.01	0.0365668
64.0000	98.95	0.0368121
68.0000	98.88	0.0369768
72.0000	98.81	0.0370924
76.0000	98.75	0.0371932
80.0000	98.68	0.0372451
84.0000	98.62	0.0373042
88.0000	98.55	0.0373481
92.0000	98.48	0.0373759
96.0000	98.42	0.0374016
100.000	98.35	0.0374302
104.000	98.28	0.0374610
108.000	98.22	0.0374693
112.000	98.15	0.0374668
116.000	98.08	0.0374747
120.000	98.02	0.0374929
124.000	97.95	0.0375049
128.000	97.88	0.0374897
132.000	97.82	0.0375028
136.000	97.75	0.0375074
140.000	97.68	0.0375054
144.000	97.62	0.0375182
148.000	97.55	0.0375303
152.000	97.48	0.0375311
156.000	97.42	0.0375103
160.000	97.35	0.0375110
164.000	97.28	0.0375134
168.000	97.21	0.0375244
172.000	97.15	0.0374831
176.000	97.08	0.0374596
180.000	97.02	0.0374531
184.000	96.95	0.0374502
188.000	96.88	0.0374287
192.000	96.82	0.0374071
196.000	96.75	0.0374097
200.000	96.68	0.0374028
204.000	96.62	0.0374001
208.000	96.55	0.0374140
212.000	96.48	0.0374337
216.000	96.42	0.0374519
220.000	96.35	0.0374587
224.000	96.28	0.0374507
228.000	96.22	0.0374763
232.000	96.15	0.0374762
236.000	96.08	0.0374768
240.000	96.02	0.0374801
244.000	95.95	0.0374609
248.000	95.88	0.0374604
252.000	95.82	0.0374798
256.000	95.75	0.0374618
260.000	95.68	0.0374480
264.000	95.62	0.0374761
268.000	95.55	0.0374519
272.000	95.48	0.0374377
276.000	95.42	0.0374273
280.000	95.35	0.0374139
284.000	95.28	0.0374314
288.000	95.22	0.0374179
292.000	95.15	0.0374112
296.000	95.08	0.0374216
300.000	95.02	0.0374366
304.000	94.95	0.0374493
308.000	94.88	0.0374557
312.000	94.82	0.0374755
316.000	94.75	0.0374761
320.000	94.68	0.0374625
324.000	94.62	0.0374773
328.000	94.55	0.0374853
332.000	94.48	0.0374942
336.000	94.42	0.0374957
340.000	94.35	0.0375009
344.000	94.28	0.0374839
348.000	94.22	0.0374742
352.000	94.15	0.0374715
356.000	94.08	0.0374708
360.000	94.02	0.0374763
364.000	93.95	0.0374716
368.000	93.88	0.0374697
372.000	93.82	0.0374491
376.000	93.75	0.0374308
380.000	93.68	0.0374296
384.000	93.62	0.0374433
388.000	93.55	0.0374402
392.000	93.48	0.0374452
396.000	93.42	0.0374647
400.000	93.35	0.0374394
404.000	93.28	0.0374543
408.000	93.22	0.0374632
412.000	93.15	0.0374550
416.000	93.08	0.0374482
420.000	93.02	0.0374643
424.000	92.95	0.0374726
428.000	92.88	0.0375029
432.000	92.82	0.0374778
436.000	92.75	0.0374630
440.000	92.68	0.0374600
444.000	92.62	0.0374496
448.000	92.55	0.0374358
452.000	92.48	0.0374308
456.000	92.42	0.0374410
460.000	92.35	0.0374617
464.000	92.28	0.0374551
468.000	92.22	0.0374478
472.000	92.15	0.0374674
476.000	92.08	0.0374702
480.000	92.02	0.0374530
484.000	91.95	0.0374411
488.000	91.88	0.0374489
492.000	91.82	0.0374474
496.000	91.75	0.0374364
500.000	91.68	0.0373910
504.000	91.62	0.0373706
508.000	91.55	0.0373861
512.000	91.48	0.0373891
516.000	91.42	0.0373700
520.000	91.35	0.0373783
524.000	91.28	0.0373698
528.000	91.22	0.0373681
532.000	91.15	0.0373934
536.000	91.08	0.0374009
540.000	91.02	0.0374194
544.000	90.95	0.0374339
548.000	90.88	0.0374165
552.000	90.82	0.0374160
556.000	90.75	0.0374165
560.000	90.68	0.0374004
564.000	90.62	0.0373904
568.000	90.55	0.0373822
572.000	90.48	0.0373787
576.000	90.42	0.0373696
580.000	90.35	0.0373851
584.000	90.28	0.0373948
588.000	90.22	0.0373629
592.000	90.15	0.0373512
596.000	90.08	0.0373696
600.000	90.02	0.0373812
604.000	89.95	0.0373855
608.000	89.88	0.0373873
612.000	89.82	0.0373857
616.000	89.75	0.0374034
620.000	89.68	0.0374025
624.000	89.62	0.0374009
628.000	89.55	0.0374222
632.000	89.48	0.0374134
636.000	89.42	0.0374481
640.000	89.35	0.0374483
644.000	89.28	0.0374345
648.000	89.22	0.0374363
652.000	89.15	0.0374604
656.000	89.08	0.0374668
660.000	89.02	0.0374640
664.000	88.95	0.0374709
668.000	88.88	0.0374722
672.000	88.82	0.0374396
676.000	88.75	0.0374232
680.000	88.68	0.0374052
684.000	88.62	0.0373938
688.000	88.55	0.0374038
692.000	88.48	0.0374183
696.000	88.42	0.0374269
700.000	88.35	0.0374392
704.000	88.28	0.0374039
708.000	88.22	0.0373933
712.000	88.15	0.0373944
716.000	88.08	0.0373907
720.000	88.01	0.0374198
724.000	87.95	0.0373954
728.000	87.88	0.0373755
732.000	87.82	0.0373850
736.000	87.75	0.0373833
740.000	87.68	0.0373679
744.000	87.62	0.0373652
748.000	87.55	0.0373772
752.000	87.48	0.0373911
756.000	87.42	0.0373971
760.000	87.35	0.0373911
764.000	87.28	0.0373815
768.000	87.22	0.0373560
772.000	87.15	0.0373638
776.000	87.08	0.0374037
780.000	87.02	0.0373822
784.000	86.95	0.0373892
788.000	86.88	0.0373973
792.000	86.82	0.0374075
796.000	86.75	0.0374067
800.000	86.68	0.0374101
804.000	86.62	0.0373932
808.000	86.55	0.0373769
812.000	86.48	0.0373837
816.000	86.42	0.0373995
820.000	86.35	0.0373906
824.000	86.28	0.0373867
828.000	86.22	0.0374039
832.000	86.15	0.0374039
836.000	86.08	0.0374064
840.000	86.02	0.0374055
844.000	85.95	0.0373955
848.000	85.88	0.0373893
852.000	85.82	0.0373865
856.000	85.75	0.0373764
860.000	85.68	0.0373920
864.000	85.62	0.0374462
868.000	85.55	0.0374429
872.000	85.48	0.0374385
876.000	85.42	0.0374045
880.000	85.35	0.0373881
884.000	85.28	0.0373704
888.000	85.22	0.0373639
892.000	85.15	0.0373473
896.000	85.08	0.0373384
900.000	85.02	0.0373348
904.000	84.95	0.0373422
908.000	84.88	0.0373391
912.000	84.82	0.0373542
916.000	84.75	0.0373739
920.000	84.68	0.0373721
924.000	84.62	0.0373717
928.000	84.55	0.0373630
932.000	84.48	0.0373726
936.000	84.42	0.0373893
940.000	84.35	0.0373908
944.000	84.28	0.0373939
948.000	84.22	0.0373818
952.000	84.15	0.0374003
956.000	84.08	0.0373905
960.000	84.02	0.0373611
964.000	83.95	0.0373537
968.000	83.88	0.0373459
972.000	83.82	0.0373444
976.000	83.75	0.0373398
980.000	83.68	0.0373451
984.000	83.62	0.0373422
988.000	83.55	0.0373458
992.000	83.48	0.0373614
996.000	83.42	0.0373240
1000.00	83.35	0.0373280
1004.00	83.28	0.0373563
1008.00	83.22	0.0373574
1012.00	83.15	0.0373571
1016.00	83.08	0.0373756
1020.00	83.02	0.0374028
1024.00	82.95	0.0374249
1028.00	82.88	0.0374286
1032.00	82.82	0.0373934
1036.00	82.75	0.0373815
1040.00	82.68	0.0373904
1044.00	82.62	0.0373681
1048.00	82.55	0.0373872
1052.00	82.48	0.0373738
1056.00	82.42	0.0373717
1060.00	82.35	0.0373571
1064.00	82.28	0.0373671
1068.00	82.22	0.0373940
1072.00	82.15	0.0374135
1076.00	82.08	0.0374218
1080.00	82.02	0.0374110
1084.00	81.95	0.0374176
1088.00	81.88	0.0374199
1092.00	81.82	0.0374196
1096.00	81.75	0.0374099
1100.00	81.68	0.0373877
1104.00	81.62	0.0373720
1108.00	81.55	0.0373460
1112.00	81.48	0.0373471
1116.00	81.42	0.0373616
1120.00	81.35	0.0373556
1124.00	81.28	0.0373766
1128.00	81.22	0.0373866
1132.00	81.15	0.0373778
1136.00	81.08	0.0373729
1140.00	81.02	0.0373522
1144.00	80.95	0.0373516
1148.00	80.88	0.0373424
1152.00	80.82	0.0373475
1156.00	80.75	0.0373477
1160.00	80.68	0.0373525
1164.00	80.62	0.0373320
1168.00	80.55	0.0373222
1172.00	80.48	0.0373307
1176.00	80.42	0.0373193
1180.00	80.35	0.0373525
1184.00	80.28	0.0373899
1188.00	80.22	0.0374020
1192.00	80.15	0.0374035
1196.00	80.08	0.0373856
1200.00	80.02	0.0374002
1204.00	79.95	0.0374174
1208.00	79.88	0.0374055
1212.00	79.82	0.0373900
1216.00	79.75	0.0373880
1220.00	79.69	0.0373661
1224.00	79.62	0.0373758
1228.00	79.55	0.0373771
1232.00	79.48	0.0373688
1236.00	79.42	0.0373496
1240.00	79.35	0.0373442
1244.00	79.28	0.0373312
1248.00	79.22	0.0373380
1252.00	79.15	0.0373507
1256.00	79.08	0.0373600
1260.00	79.02	0.0373706
1264.00	78.95	0.0373888
1268.00	78.88	0.0373732
1272.00	78.82	0.0373760
1276.00	78.75	0.0373792
1280.00	78.68	0.0373848
1284.00	78.62	0.0373748
1288.00	78.55	0.0373879
1292.00	78.48	0.0373803
1296.00	78.42	0.0373752
1300.00	78.35	0.0373827
1304.00	78.28	0.0373807
1308.00	78.22	0.0373918
1312.00	78.15	0.0373683
1316.00	78.08	0.0373612
1320.00	78.02	0.0373520
1324.00	77.95	0.0373518
1328.00	77.88	0.0373421
1332.00	77.82	0.0373307
1336.00	77.75	0.0373254
1340.00	77.68	0.0373140
1344.00	77.62	0.0373227
1348.00	77.55	0.0373271
1352.00	77.48	0.0373227
1356.00	77.42	0.0373131
1360.00	77.35	0.0373167
1364.00	77.28	0.0373234
1368.00	77.22	0.0373214
1372.00	77.15	0.0373232
1376.00	77.08	0.0373442
1380.00	77.02	0.0373420
1384.00	76.95	0.0373782
1388.00	76.88	0.0373757
1392.00	76.82	0.0373507
1396.00	76.75	0.0373525
1400.00	76.68	0.0373348
1404.00	76.62	0.0373400
1408.00	76.55	0.0373461
1412.00	76.48	0.0373606
1416.00	76.42	0.0373531
1420.00	76.35	0.0373358
1424.00	76.28	0.0373246
1428.00	76.22	0.0373222
1432.00	76.15	0.0373233
1436.00	76.08	0.0373363
1440.00	76.02	0.0373350
1444.00	75.95	0.0373441
1448.00	75.88	0.0373539
1452.00	75.82	0.0373622
1456.00	75.75	0.0373530
1460.00	75.68	0.0373323
1464.00	75.62	0.0373357
1468.00	75.55	0.0373361
1472.00	75.48	0.0373517
1476.00	75.42	0.0373364
1480.00	75.35	0.0373302
1484.00	75.28	0.0373447
1488.00	75.22	0.0373474
1492.00	75.15	0.0373274
1496.00	75.08	0.0373241
1500.00	75.02	0.0373443
1504.00	74.95	0.0372846
1508.00	74.88	0.0372257
1512.00	74.82	0.0372003
1516.00	74.75	0.0372066
1520.00	74.68	0.0372181
1524.00	74.62	0.0372439
1528.00	74.55	0.0372730
1532.00	74.49	0.0373206
1536.00	74.42	0.0373550
1540.00	74.35	0.0374041
1544.00	74.28	0.0374257
1548.00	74.22	0.0374254
1552.00	74.15	0.0374110
1556.00	74.08	0.0373870
1560.00	74.02	0.0373924
1564.00	73.95	0.0373957
1568.00	73.88	0.0373966
1572.00	73.82	0.0373963
1576.00	73.75	0.0373992
1580.00	73.68	0.0374152
1584.00	73.62	0.0374156
1588.00	73.55	0.0374174
1592.00	73.48	0.0373745
1596.00	73.42	0.0373638
1600.00	73.35	0.0373537
1604.00	73.28	0.0373475
1608.00	73.22	0.0373459
1612.00	73.15	0.0373596
1616.00	73.08	0.0373567
1620.00	73.02	0.0373575
1624.00	72.95	0.0373516
1628.00	72.88	0.0373643
1632.00	72.82	0.0373704
1636.00	72.75	0.0373643
1640.00	72.68	0.0373297
1644.00	72.62	0.0373230
1648.00	72.55	0.0373115
1652.00	72.48	0.0373082
1656.00	72.42	0.0373263
1660.00	72.35	0.0373090
1664.00	72.28	0.0373077
1668.00	72.22	0.0373056
1672.00	72.15	0.0373139
1676.00	72.08	0.0373234
1680.00	72.02	0.0373404
1684.00	71.95	0.0373405
1688.00	71.88	0.0373340
1692.00	71.82	0.0373321
1696.00	71.75	0.0373284
1700.00	71.68	0.0373171
1704.00	71.62	0.0373245
1708.00	71.55	0.0373327
1712.00	71.48	0.0373192
1716.00	71.42	0.0373049
1720.00	71.35	0.0373225
1724.00	71.28	0.0373254
1728.00	71.22	0.0373138
1732.00	71.15	0.0373399
1736.00	71.08	0.0373494
1740.00	71.02	0.0373361
1744.00	70.95	0.0373382
1748.00	70.88	0.0373336
1752.00	70.82	0.0373095
1756.00	70.75	0.0372866
1760.00	70.68	0.0372700
1764.00	70.62	0.0372542
1768.00	70.55	0.0372817
1772.00	70.48	0.0372567
1776.00	70.42	0.0372597
1780.00	70.35	0.0372686
1784.00	70.28	0.0372969
1788.00	70.22	0.0373183
1792.00	70.15	0.0373117
1796.00	70.08	0.0373219
1800.00	70.02	0.0373025
1804.00	69.95	0.0372884
1808.00	69.88	0.0372814
1812.00	69.82	0.0372728
1816.00	69.75	0.0372383
1820.00	69.68	0.0372650
1824.00	69.62	0.0372935
1828.00	69.55	0.0373016
1832.00	69.48	0.0373052
1836.00	69.42	0.0373310
1840.00	69.35	0.0373397
1844.00	69.28	0.0373114
1848.00	69.22	0.0373089
1852.00	69.15	0.0372922
1856.00	69.08	0.0372869
1860.00	69.02	0.0372761
1864.00	68.95	0.0372921
1868.00	68.88	0.0372807
1872.00	68.82	0.0373100
1876.00	68.75	0.0373170
1880.00	68.68	0.0372918
1884.00	68.62	0.0372967
1888.00	68.55	0.0372710
1892.00	68.48	0.0372683
1896.00	68.42	0.0372761
1900.00	68.35	0.0372733
1904.00	68.28	0.0372678
1908.00	68.22	0.0372640
1912.00	68.15	0.0372531
1916.00	68.08	0.0372635
1920.00	68.02	0.0372692
1924.00	67.95	0.0372576
1928.00	67.88	0.0372600
1932.00	67.82	0.0372549
1936.00	67.75	0.0372565
1940.00	67.68	0.0372706
1944.00	67.62	0.0372840
1948.00	67.55	0.0372671
1952.00	67.48	0.0372453
1956.00	67.42	0.0372457
1960.00	67.35	0.0372560
1964.00	67.28	0.0372313
1968.00	67.22	0.0372323
1972.00	67.15	0.0372360
1976.00	67.08	0.0372293
1980.00	67.02	0.0372349
1984.00	66.95	0.0372544
1988.00	66.88	0.0372696
1992.00	66.82	0.0372672
1996.00	66.75	0.0372594
2000.00	66.68	0.0372574
2004.00	66.62	0.0372681
2008.00	66.55	0.0372726
2012.00	66.48	0.0372643
2016.00	66.42	0.0372389
2020.00	66.35	0.0372438
2024.00	66.28	0.0372472
2028.00	66.22	0.0372714
2032.00	66.15	0.0372930
2036.00	66.08	0.0372691
2040.00	66.02	0.0372712
2044.00	65.95	0.0372559
2048.00	65.88	0.0372521
2052.00	65.82	0.0372419
2056.00	65.75	0.0372224
2060.00	65.68	0.0372221
2064.00	65.62	0.0372263
2068.00	65.55	0.0372288
2072.00	65.48	0.0372218
2076.00	65.42	0.0372330
2080.00	65.35	0.0372068
2084.00	65.28	0.0371860
2088.00	65.22	0.0372024
2092.00	65.15	0.0371963
2096.00	65.08	0.0371954
2100.00	65.02	0.0371826
2104.00	64.95	0.0371646
2108.00	64.88	0.0371656
2112.00	64.82	0.0371894
2116.00	64.75	0.0372003
2120.00	64.68	0.0371932
2124.00	64.62	0.0371718
2128.00	64.55	0.0371792
2132.00	64.48	0.0371575
2136.00	64.42	0.0371665
2140.00	64.35	0.0371843
2144.00	64.28	0.0372036
2148.00	64.22	0.0372106
2152.00	64.15	0.0371846
2156.00	64.08	0.0371731
2160.00	64.02	0.0371760
2164.00	63.95	0.0371855
2168.00	63.88	0.0371774
2172.00	63.82	0.0371859
2176.00	63.75	0.0371902
2180.00	63.68	0.0371925
2184.00	63.62	0.0372005
2188.00	63.55	0.0371933
2192.00	63.48	0.0372079
2196.00	63.42	0.0372151
2200.00	63.35	0.0372126
2204.00	63.28	0.0372066
2208.00	63.22	0.0372320
2212.00	63.15	0.0372349
2216.00	63.08	0.0372264
2220.00	63.02	0.0372184
2224.00	62.95	0.0372008
2228.00	62.88	0.0372072
2232.00	62.82	0.0371822
2236.00	62.75	0.0372152
2240.00	62.68	0.0372312
2244.00	62.62	0.0371990
2248.00	62.55	0.0371814
2252.00	62.48	0.0371699
2256.00	62.42	0.0371574
2260.00	62.35	0.0371474
2264.00	62.28	0.0371521
2268.00	62.22	0.0371321
2272.00	62.15	0.0370890
2276.00	62.08	0.0371391
2280.00	62.02	0.0371571
2284.00	61.95	0.0371763
2288.00	61.88	0.0371768
2292.00	61.82	0.0371759
2296.00	61.75	0.0371920
2300.00	61.68	0.0371837
2304.00	61.62	0.0371838
2308.00	61.55	0.0371755
2312.00	61.48	0.0371548
2316.00	61.42	0.0371435
2320.00	61.35	0.0371291
2324.00	61.28	0.0371109
2328.00	61.22	0.0371143
2332.00	61.15	0.0371268
2336.00	61.08	0.0371174
2340.00	61.02	0.0371256
2344.00	60.95	0.0371378
2348.00	60.88	0.0371571
2352.00	60.82	0.0371702
2356.00	60.75	0.0371673
2360.00	60.68	0.0371890
2364.00	60.62	0.0371938
2368.00	60.55	0.0371947
2372.00	60.48	0.0371875
2376.00	60.42	0.0371807
2380.00	60.35	0.0371851
2384.00	60.28	0.0371812
2388.00	60.22	0.0371529
2392.00	60.15	0.0371412
2396.00	60.08	0.0371372
2400.00	60.02	0.0371550
2404.00	59.95	0.0371348
2408.00	59.88	0.0371198
2412.00	59.82	0.0370972
2416.00	59.75	0.0370732
2420.00	59.69	0.0370498
2424.00	59.62	0.0370715
2428.00	59.55	0.0370856
2432.00	59.48	0.0370883
2436.00	59.42	0.0370754
2440.00	59.35	0.0370849
2444.00	59.28	0.0370887
2448.00	59.22	0.0370952
2452.00	59.15	0.0370900
2456.00	59.08	0.0370991
2460.00	59.02	0.0371172
2464.00	58.95	0.0371043
2468.00	58.88	0.0371123
2472.00	58.82	0.0371116
2476.00	58.75	0.0371231
2480.00	58.68	0.0371074
2484.00	58.62	0.0371094
2488.00	58.55	0.0370926
2492.00	58.48	0.0371041
2496.00	58.42	0.0370897
2500.00	58.35	0.0371155
2504.00	58.28	0.0370948
2508.00	58.22	0.0371004
2512.00	58.15	0.0371224
2516.00	58.08	0.0371127
2520.00	58.02	0.0371200
2524.00	57.95	0.0371403
2528.00	57.88	0.0371218
2532.00	57.82	0.0371021
2536.00	57.75	0.0370911
2540.00	57.68	0.0371130
2544.00	57.62	0.0371275
2548.00	57.55	0.0371189
2552.00	57.48	0.0370973
2556.00	57.42	0.0370707
2560.00	57.35	0.0370732
2564.00	57.28	0.0371004
2568.00	57.22	0.0371133
2572.00	57.15	0.0371133
2576.00	57.08	0.0371107
2580.00	57.02	0.0371001
2584.00	56.95	0.0371142
2588.00	56.88	0.0370988
2592.00	56.82	0.0370916
2596.00	56.75	0.0370888
2600.00	56.68	0.0370889
2604.00	56.62	0.0370766
2608.00	56.55	0.0370799
2612.00	56.48	0.0370745
2616.00	56.42	0.0370729
2620.00	56.35	0.0370791
2624.00	56.28	0.0370665
2628.00	56.22	0.0370788
2632.00	56.15	0.0370804
2636.00	56.08	0.0370680
2640.00	56.02	0.0370728
2644.00	55.95	0.0370781
2648.00	55.88	0.0370953
2652.00	55.82	0.0371139
2656.00	55.75	0.0371327
2660.00	55.68	0.0371348
2664.00	55.62	0.0370990
2668.00	55.55	0.0370843
2672.00	55.48	0.0370793
2676.00	55.42	0.0370663
2680.00	55.35	0.0370805
2684.00	55.29	0.0370633
2688.00	55.22	0.0370794
2692.00	55.15	0.0370879
2696.00	55.08	0.0370741
2700.00	55.02	0.0370800
2704.00	54.95	0.0370808
2708.00	54.88	0.0370744
2712.00	54.82	0.0370781
2716.00	54.75	0.0371048
2720.00	54.68	0.0370789
2724.00	54.62	0.0370629
2728.00	54.55	0.0370570
2732.00	54.48	0.0370412
2736.00	54.42	0.0370312
2740.00	54.35	0.0370274
2744.00	54.28	0.0370094
2748.00	54.22	0.0370034
2752.00	54.15	0.0370218
2756.00	54.08	0.0369964
2760.00	54.02	0.0369949
2764.00	53.95	0.0369912
2768.00	53.88	0.0369944
2772.00	53.82	0.0370096
2776.00	53.75	0.0370238
2780.00	53.68	0.0370166
2784.00	53.62	0.0370158
2788.00	53.55	0.0370159
2792.00	53.48	0.0370502
2796.00	53.42	0.0370425
2800.00	53.35	0.0370340
2804.00	53.28	0.0370289
2808.00	53.22	0.0370515
2812.00	53.15	0.0370304
2816.00	53.08	0.0370274
2820.00	53.02	0.0370211
2824.00	52.95	0.0370390
2828.00	52.88	0.0370428
2832.00	52.82	0.0370083
2836.00	52.75	0.0369884
2840.00	52.68	0.0369742
2844.00	52.62	0.0369719
2848.00	52.55	0.0369547
2852.00	52.48	0.0369656
2856.00	52.42	0.0369632
2860.00	52.35	0.0369640
2864.00	52.28	0.0369567
2868.00	52.22	0.0369735
2872.00	52.15	0.0369914
2876.00	52.08	0.0369834
2880.00	52.02	0.0369591
2884.00	51.95	0.0369496
2888.00	51.88	0.0369798
2892.00	51.82	0.0369768
2896.00	51.75	0.0369874
2900.00	51.68	0.0369820
2904.00	51.62	0.0369893
2908.00	51.55	0.0369797
2912.00	51.48	0.0369835
2916.00	51.42	0.0369983
2920.00	51.35	0.0369951
2924.00	51.28	0.0369649
2928.00	51.22	0.0369287
2932.00	51.15	0.0369377
2936.00	51.08	0.0369697
2940.00	51.02	0.0369824
2944.00	50.95	0.0369482
2948.00	50.88	0.0369385
2952.00	50.82	0.0369374
2956.00	50.75	0.0369292
2960.00	50.68	0.0369156
2964.00	50.62	0.0368775
2968.00	50.55	0.0368750
2972.00	50.48	0.0368936
2976.00	50.42	0.0368948
2980.00	50.35	0.0369327
2984.00	50.28	0.0369287
2988.00	50.22	0.0369450
2992.00	50.15	0.0369329
2996.00	50.08	0.0369091
3000.00	50.02	0.0369222
3004.00	49.95	0.0369317
3008.00	49.88	0.0369444
3012.00	49.82	0.0369750
3016.00	49.75	0.0369474
3020.00	49.68	0.0369536
3024.00	49.62	0.0369212
3028.00	49.55	0.0369063
3032.00	49.48	0.0369095
3036.00	49.42	0.0369383
3040.00	49.35	0.0369252
3044.00	49.28	0.0369020
3048.00	49.22	0.0369139
3052.00	49.15	0.0369115
3056.00	49.08	0.0369371
3060.00	49.02	0.0369346
3064.00	48.95	0.0369240
3068.00	48.88	0.0369375
3072.00	48.82	0.0369357
3076.00	48.75	0.0369320
3080.00	48.68	0.0369274
3084.00	48.62	0.0369366
3088.00	48.55	0.0369394
3092.00	48.48	0.0369540
3096.00	48.42	0.0369437
3100.00	48.35	0.0369222
3104.00	48.28	0.0369237
3108.00	48.22	0.0369025
3112.00	48.15	0.0368909
3116.00	48.08	0.0368574
3120.00	48.02	0.0368556
3124.00	47.95	0.0368684
3128.00	47.88	0.0368500
3132.00	47.82	0.0368816
3136.00	47.75	0.0369085
3140.00	47.68	0.0369177
3144.00	47.62	0.0369189
3148.00	47.55	0.0369566
3152.00	47.48	0.0369817
3156.00	47.42	0.0370071
3160.00	47.35	0.0370014
3164.00	47.28	0.0369520
3168.00	47.22	0.0369106
3172.00	47.15	0.0368592
3176.00	47.08	0.0368353
3180.00	47.02	0.0368264
3184.00	46.95	0.0368219
3188.00	46.88	0.0368476
3192.00	46.82	0.0368513
3196.00	46.75	0.0368569
3200.00	46.68	0.0368472
3204.00	46.62	0.0368284
3208.00	46.55	0.0368037
3212.00	46.48	0.0367684
3216.00	46.42	0.0367752
3220.00	46.35	0.0367944
3224.00	46.28	0.0368220
3228.00	46.22	0.0368405
3232.00	46.15	0.0368537
3236.00	46.08	0.0368847
3240.00	46.02	0.0368865
3244.00	45.95	0.0368780
3248.00	45.88	0.0369044
3252.00	45.82	0.0368901
3256.00	45.75	0.0368716
3260.00	45.68	0.0368866
3264.00	45.62	0.0368455
3268.00	45.55	0.0368455
3272.00	45.48	0.0368479
3276.00	45.42	0.0368363
3280.00	45.35	0.0368498
3284.00	45.28	0.0368439
3288.00	45.22	0.0369250
3292.00	45.15	0.0372315
3296.00	45.09	0.0400619
3300.00	45.02	0.0429033
3304.00	44.96	0.0440837
3308.00	44.89	0.0444566
3312.00	44.82	0.0447031
3316.00	44.76	0.0448441
3320.00	44.69	0.0450360
3324.00	44.63	0.0482789
3328.00	44.58	0.0561047
3332.00	44.52	0.0674874
3336.00	44.46	0.0765619
3340.00	44.39	0.0786498
3344.00	44.32	0.0729467
3348.00	44.25	0.0688345
3352.00	44.18	0.0663950
3356.00	44.11	0.0636317
3360.00	44.04	0.0631128
3364.00	43.97	0.0628522
3368.00	43.91	0.0626626
3372.00	43.84	0.0597675
3376.00	43.77	0.0562634
3380.00	43.70	0.0552048
3384.00	43.63	0.0544984
3388.00	43.56	0.0525343
3392.00	43.49	0.0473104
3396.00	43.42	0.0448805
3400.00	43.35	0.0435013
3404.00	43.29	0.0427600
3408.00	43.22	0.0422121
3412.00	43.15	0.0417209
3416.00	43.09	0.0412599
3420.00	43.02	0.0408705
3424.00	42.95	0.0405190
3428.00	42.89	0.0402477
3432.00	42.82	0.0400056
3436.00	42.75	0.0398067
3440.00	42.68	0.0396402
3444.00	42.62	0.0395191
3448.00	42.55	0.0394198
3452.00	42.49	0.0393513
3456.00	42.42	0.0392858
3460.00	42.35	0.0392465
3464.00	42.29	0.0392044
3468.00	42.22	0.0391124
3472.00	42.15	0.0390402
3476.00	42.09	0.0389796
3480.00	42.02	0.0389417
3484.00	41.95	0.0388863
3488.00	41.89	0.0388684
3492.00	41.82	0.0388350
3496.00	41.75	0.0388368
3500.00	41.69	0.0388040
3504.00	41.62	0.0388145
3508.00	41.55	0.0387991
3512.00	41.49	0.0387889
3516.00	41.42	0.0387259
3520.00	41.35	0.0387031
3524.00	41.29	0.0386855
3528.00	41.22	0.0386781
3532.00	41.15	0.0386822
3536.00	41.09	0.0386646
3540.00	41.02	0.0386693
3544.00	40.95	0.0386617
3548.00	40.89	0.0386572
3552.00	40.82	0.0386389
3556.00	40.75	0.0386210
3560.00	40.69	0.0385879
3564.00	40.62	0.0385647
3568.00	40.55	0.0385542
3572.00	40.49	0.0385273
3576.00	40.42	0.0384869
3580.00	40.35	0.0384804
3584.00	40.29	0.0384737
3588.00	40.22	0.0384230
3592.00	40.15	0.0383986
3596.00	40.09	0.0383769
3600.00	40.02	0.0383784
3604.00	39.95	0.0383565
3608.00	39.89	0.0383414
3612.00	39.82	0.0383362
3616.00	39.75	0.0383346
3620.00	39.69	0.0383150
3624.00	39.62	0.0382907
3628.00	39.55	0.0382757
3632.00	39.49	0.0382522
3636.00	39.42	0.0382397
3640.00	39.35	0.0382384
3644.00	39.28	0.0382422
3648.00	39.22	0.0382243
3652.00	39.15	0.0382108
3656.00	39.09	0.0381789
3660.00	39.02	0.0381658
3664.00	38.95	0.0381536
3668.00	38.88	0.0381367
3672.00	38.82	0.0381328
3676.00	38.75	0.0381162
3680.00	38.69	0.0381094
3684.00	38.62	0.0380849
3688.00	38.55	0.0380863
3692.00	38.48	0.0380759
3696.00	38.42	0.0380552
3700.00	38.35	0.0380589
3704.00	38.28	0.0380370
3708.00	38.22	0.0380505
3712.00	38.15	0.0380345
3716.00	38.09	0.0380195
3720.00	38.02	0.0379799
3724.00	37.95	0.0379782
3728.00	37.88	0.0379618
3732.00	37.82	0.0379606
3736.00	37.75	0.0379299
3740.00	37.68	0.0379352
3744.00	37.62	0.0379293
3748.00	37.55	0.0378971
3752.00	37.49	0.0378988
3756.00	37.42	0.0378859
3760.00	37.35	0.0378858
3764.00	37.28	0.0378807
3768.00	37.22	0.0378607
3772.00	37.15	0.0378618
3776.00	37.08	0.0378740
3780.00	37.02	0.0379079
3784.00	36.95	0.0380532
3788.00	36.89	0.0384556
3792.00	36.82	0.0392115
3796.00	36.76	0.0404056
3800.00	36.69	0.0415931
3804.00	36.63	0.0432787
3808.00	36.56	0.0446444
3812.00	36.49	0.0460353
3816.00	36.43	0.0469326
3820.00	36.36	0.0482236
3824.00	36.30	0.0491237
3828.00	36.23	0.0500233
3832.00	36.17	0.0508873
3836.00	36.10	0.0517864
3840.00	36.04	0.0527436
3844.00	35.97	0.0539116
3848.00	35.90	0.0552269
3852.00	35.84	0.0564449
3856.00	35.77	0.0575559
3860.00	35.71	0.0595408
3864.00	35.65	0.0624878
3868.00	35.58	0.0663315
3872.00	35.52	0.0692582
3876.00	35.45	0.0701221
3880.00	35.38	0.0709701
3884.00	35.32	0.0712991
3888.00	35.25	0.0710921
3892.00	35.18	0.0670104
3896.00	35.10	0.0615606
3900.00	35.03	0.0569652
3904.00	34.96	0.0538882
3908.00	34.90	0.0516094
3912.00	34.83	0.0496052
3916.00	34.76	0.0480037
3920.00	34.69	0.0469234
3924.00	34.62	0.0461257
3928.00	34.56	0.0453077
3932.00	34.49	0.0446033
3936.00	34.42	0.0438674
3940.00	34.35	0.0432338
3944.00	34.29	0.0426087
3948.00	34.22	0.0420704
3952.00	34.15	0.0415818
3956.00	34.09	0.0411714
3960.00	34.02	0.0408171
3964.00	33.95	0.0405360
3968.00	33.89	0.0403015
3972.00	33.82	0.0401051
3976.00	33.75	0.0399609
3980.00	33.69	0.0398351
3984.00	33.62	0.0397186
3988.00	33.55	0.0395932
3992.00	33.49	0.0394900
3996.00	33.42	0.0394075
4000.00	33.35	0.0393432
4004.00	33.29	0.0393006
4008.00	33.22	0.0392497
4012.00	33.15	0.0392247
4016.00	33.09	0.0391841
4020.00	33.02	0.0391463
4024.00	32.95	0.0391066
4028.00	32.89	0.0390655
4032.00	32.82	0.0390520
4036.00	32.75	0.0390503
4040.00	32.69	0.0390138
4044.00	32.62	0.0390128
4048.00	32.55	0.0390022
4052.00	32.48	0.0389748
4056.00	32.42	0.0389504
4060.00	32.35	0.0388915
4064.00	32.28	0.0388765
4068.00	32.22	0.0388478
4072.00	32.15	0.0388397
4076.00	32.08	0.0388231
4080.00	32.02	0.0387834
4084.00	31.95	0.0387687
4088.00	31.88	0.0387368
4092.00	31.82	0.0386931
4096.00	31.75	0.0386649
4100.00	31.68	0.0386326
4104.00	31.62	0.0386091
4108.00	31.55	0.0385767
4112.00	31.48	0.0385422
4116.00	31.42	0.0385320
4120.00	31.35	0.0385033
4124.00	31.28	0.0384828
4128.00	31.22	0.0384934
4132.00	31.15	0.0384954
4136.00	31.08	0.0385131
4140.00	31.02	0.0384815
4144.00	30.95	0.0384720
4148.00	30.88	0.0384541
4152.00	30.82	0.0384152
4156.00	30.75	0.0383935
4160.00	30.68	0.0383815
4164.00	30.62	0.0383804
4168.00	30.55	0.0384042
4172.00	30.48	0.0384048
4176.00	30.42	0.0383616
4180.00	30.35	0.0383188
4184.00	30.28	0.0383237
4188.00	30.22	0.0382846
4192.00	30.15	0.0382710
4196.00	30.08	0.0382434
4200.00	30.02	0.0382072
4204.00	29.95	0.0382021
4208.00	29.88	0.0381960
4212.00	29.82	0.0381973
4216.00	29.75	0.0381947
4220.00	29.68	0.0381636
4224.00	29.62	0.0381274
4228.00	29.55	0.0381369
4232.00	29.48	0.0381486
4236.00	29.42	0.0381479
4240.00	29.35	0.0381369
4244.00	29.28	0.0381382
4248.00	29.22	0.0380960
4252.00	29.15	0.0380551
4256.00	29.08	0.0380281
4260.00	29.02	0.0380142
4264.00	28.95	0.0379897
4268.00	28.88	0.0380057
4272.00	28.82	0.0380101
4276.00	28.75	0.0379914
4280.00	28.68	0.0380038
4284.00	28.62	0.0379847
4288.00	28.55	0.0379666
4292.00	28.48	0.0379611
4296.00	28.42	0.0379604
4300.00	28.35	0.0379331
4304.00	28.28	0.0379094
4308.00	28.22	0.0379024
4312.00	28.15	0.0378772
4316.00	28.08	0.0378600
4320.00	28.02	0.0378532
4324.00	27.95	0.0378360
4328.00	27.88	0.0378070
4332.00	27.82	0.0377821
4336.00	27.75	0.0377813
4340.00	27.68	0.0377930
4344.00	27.62	0.0377806
4348.00	27.55	0.0377885
4352.00	27.49	0.0377867
4356.00	27.42	0.0377768
4360.00	27.35	0.0377629
4364.00	27.28	0.0377630
4368.00	27.22	0.0377271
4372.00	27.15	0.0377083
4376.00	27.08	0.0377048
4380.00	27.02	0.0376888
4384.00	26.95	0.0376897
4388.00	26.88	0.0376494
4392.00	26.82	0.0376491
4396.00	26.75	0.0376325
4400.00	26.68	0.0376353
4404.00	26.62	0.0376098
4408.00	26.55	0.0376018
4412.00	26.48	0.0375961
4416.00	26.42	0.0375730
4420.00	26.35	0.0375642
4424.00	26.28	0.0375506
4428.00	26.22	0.0375375
4432.00	26.15	0.0375228
4436.00	26.08	0.0375215
4440.00	26.02	0.0375209
4444.00	25.95	0.0375401
4448.00	25.88	0.0375166
4452.00	25.82	0.0374794
4456.00	25.75	0.0374798
4460.00	25.68	0.0374679
4464.00	25.62	0.0374629
4468.00	25.55	0.0374243
4472.00	25.48	0.0374373
4476.00	25.42	0.0375297
4480.00	25.35	0.0375966
4484.00	25.29	0.0376247
4488.00	25.22	0.0376021
4492.00	25.15	0.0375537
4496.00	25.08	0.0375204
4500.00	25.02	0.0374986
4504.00	24.95	0.0374958
4508.00	24.88	0.0374673
4512.00	24.82	0.0374511
4516.00	24.75	0.0374487
4520.00	24.68	0.0374418
4524.00	24.62	0.0374021
4528.00	24.55	0.0373584
4532.00	24.48	0.0373207
4536.00	24.42	0.0373163
4540.00	24.35	0.0372715
4544.00	24.28	0.0372369
4548.00	24.22	0.0372168
4552.00	24.15	0.0371964
4556.00	24.08	0.0371746
4560.00	24.02	0.0371548
4564.00	23.95	0.0371357
4568.00	23.88	0.0371472
4572.00	23.82	0.0371720
4576.00	23.75	0.0371490
4580.00	23.68	0.0371567
4584.00	23.62	0.0371599
4588.00	23.55	0.0371574
4592.00	23.48	0.0371568
4596.00	23.42	0.0371483
4600.00	23.35	0.0371146
4604.00	23.28	0.0370939
4608.00	23.22	0.0371203
4612.00	23.15	0.0370929
4616.00	23.08	0.0370897
4620.00	23.02	0.0371036
4624.00	22.95	0.0370998
4628.00	22.88	0.0370783
4632.00	22.82	0.0370746
4636.00	22.75	0.0370354
4640.00	22.68	0.0370039
4644.00	22.62	0.0369941
4648.00	22.55	0.0369737
4652.00	22.48	0.0369475
4656.00	22.42	0.0369506
4660.00	22.35	0.0369692
4664.00	22.28	0.0369600
4668.00	22.22	0.0369475
4672.00	22.15	0.0369888
4676.00	22.08	0.0369701
4680.00	22.02	0.0369610
4684.00	21.95	0.0369181
4688.00	21.88	0.0369037
4692.00	21.82	0.0368837
4696.00	21.75	0.0368826
4700.00	21.68	0.0368762
4704.00	21.62	0.0368612
4708.00	21.55	0.0368546
4712.00	21.48	0.0368483
4716.00	21.42	0.0368461
4720.00	21.35	0.0368263
4724.00	21.28	0.0368075
4728.00	21.22	0.0368169
4732.00	21.15	0.0367923
4736.00	21.08	0.0367922
4740.00	21.02	0.0367913
4744.00	20.95	0.0367849
4748.00	20.88	0.0367687
4752.00	20.82	0.0367574
4756.00	20.75	0.0367462
4760.00	20.68	0.0367579
4764.00	20.61	0.0367445
4768.00	20.55	0.0367515
4772.00	20.48	0.0367192
4776.00	20.42	0.0367129
4780.00	20.35	0.0366974
4784.00	20.28	0.0367062
4788.00	20.22	0.0366757
4792.00	20.15	0.0366804
4796.00	20.08	0.0366450
4800.00	20.02	0.0366460
4804.00	19.95	0.0366441
4808.00	19.88	0.0366178
4812.00	19.82	0.0366119
4816.00	19.75	0.0366350
4820.00	19.68	0.0366544
4824.00	19.62	0.0366736
4828.00	19.55	0.0366832
4832.00	19.48	0.0366649
4836.00	19.42	0.0366668
4840.00	19.35	0.0366587
4844.00	19.28	0.0366480
4848.00	19.22	0.0366236
4852.00	19.15	0.0366046
4856.00	19.08	0.0366074
4860.00	19.02	0.0365983
4864.00	18.95	0.0365969
4868.00	18.88	0.0366205
4872.00	18.81	0.0366225
4876.00	18.75	0.0366032
4880.00	18.68	0.0365854
4884.00	18.61	0.0365690
4888.00	18.55	0.0365233
4892.00	18.48	0.0364936
4896.00	18.42	0.0364888
4900.00	18.35	0.0364833
4904.00	18.28	0.0364887
4908.00	18.21	0.0364942
4912.00	18.15	0.0364885
4916.00	18.08	0.0364530
4920.00	18.01	0.0364367
4924.00	17.95	0.0364123
4928.00	17.88	0.0363618
4932.00	17.81	0.0364438
4936.00	17.75	0.0365489
4940.00	17.68	0.0365917
4944.00	17.62	0.0365851
4948.00	17.55	0.0365491
4952.00	17.48	0.0365100
4956.00	17.41	0.0365013
4960.00	17.35	0.0364966
4964.00	17.28	0.0364618
4968.00	17.21	0.0364330
4972.00	17.15	0.0363958
4976.00	17.08	0.0363769
4980.00	17.02	0.0363856
4984.00	16.95	0.0363928
4988.00	16.88	0.0363592
4992.00	16.81	0.0363752
4996.00	16.75	0.0363723
5000.00	16.68	0.0363653
5004.00	16.62	0.0363695
5008.00	16.55	0.0363506
5012.00	16.48	0.0363628
5016.00	16.41	0.0363424
5020.00	16.35	0.0363521
5024.00	16.28	0.0363155
5028.00	16.21	0.0362948
5032.00	16.15	0.0362768
5036.00	16.08	0.0362685
5040.00	16.01	0.0362388
5044.00	15.95	0.0362449
5048.00	15.88	0.0362219
5052.00	15.82	0.0361752
5056.00	15.75	0.0361879
5060.00	15.68	0.0362133
5064.00	15.62	0.0362256
5068.00	15.55	0.0362146
5072.00	15.48	0.0361957
5076.00	15.42	0.0361694
5080.00	15.35	0.0361554
5084.00	15.28	0.0361686
5088.00	15.21	0.0361702
5092.00	15.15	0.0361752
5096.00	15.08	0.0361528
5100.00	15.01	0.0361553
5104.00	14.95	0.0361211
5108.00	14.88	0.0361020
5112.00	14.82	0.0360757
5116.00	14.75	0.0360611
5120.00	14.68	0.0360534
5124.00	14.62	0.0360416
5128.00	14.55	0.0360223
5132.00	14.48	0.0360297
5136.00	14.42	0.0360399
5140.00	14.35	0.0360295
5144.00	14.28	0.0360485
5148.00	14.22	0.0360331
5152.00	14.15	0.0360230
5156.00	14.08	0.0360426
5160.00	14.01	0.0360353
5164.00	13.95	0.0360361
5168.00	13.88	0.0360275
5172.00	13.81	0.0360386
5176.00	13.75	0.0360218
5180.00	13.68	0.0359832
5184.00	13.61	0.0359684
5188.00	13.55	0.0359690
5192.00	13.48	0.0359822
5196.00	13.41	0.0359535
5200.00	13.35	0.0359388
5204.00	13.28	0.0359283
5208.00	13.22	0.0359317
5212.00	13.15	0.0359268
5216.00	13.08	0.0359102
5220.00	13.01	0.0359027
5224.00	12.95	0.0359021
5228.00	12.88	0.0358882
5232.00	12.82	0.0359240
5236.00	12.75	0.0359258
5240.00	12.68	0.0359242
5244.00	12.61	0.0359231
5248.00	12.55	0.0359096
5252.00	12.48	0.0358836
5256.00	12.41	0.0358975
5260.00	12.35	0.0359165
5264.00	12.28	0.0359175
5268.00	12.21	0.0359058
5272.00	12.15	0.0358675
5276.00	12.08	0.0358749
5280.00	12.01	0.0358671
5284.00	11.95	0.0358475
5288.00	11.88	0.0358268
5292.00	11.81	0.0358270
5296.00	11.75	0.0358295
5300.00	11.68	0.0358352
5304.00	11.61	0.0358335
5308.00	11.55	0.0358207
5312.00	11.48	0.0357904
5316.00	11.42	0.0357839
5320.00	11.35	0.0357862
5324.00	11.28	0.0357874
5328.00	11.21	0.0357827
5332.00	11.15	0.0357706
5336.00	11.08	0.0357768
5340.00	11.01	0.0357893
5344.00	10.95	0.0357618
5348.00	10.88	0.0357373
5352.00	10.81	0.0357312
5356.00	10.75	0.0357172
5360.00	10.68	0.0357292
5364.00	10.61	0.0357176
5368.00	10.55	0.0357252
5372.00	10.48	0.0356923
5376.00	10.42	0.0356688
5380.00	10.35	0.0356820
5384.00	10.28	0.0356716
5388.00	10.21	0.0356770
5392.00	10.15	0.0356840
5396.00	10.08	0.0356727
5400.00	10.01	0.0356756
5404.00	9.95	0.0356784
5408.00	9.88	0.0356897
5412.00	9.81	0.0356787
5416.00	9.75	0.0356616
5420.00	9.68	0.0356323
5424.00	9.61	0.0356293
5428.00	9.55	0.0356098
5432.00	9.48	0.0355853
5436.00	9.41	0.0355963
5440.00	9.35	0.0355977
5444.00	9.28	0.0356161
5448.00	9.21	0.0356249
5452.00	9.15	0.0356194
5456.00	9.08	0.0356034
5460.00	9.01	0.0355835
5464.00	8.95	0.0355840
5468.00	8.88	0.0355514
5472.00	8.81	0.0355392
5476.00	8.75	0.0355268
5480.00	8.68	0.0355134
5484.00	8.62	0.0355207
5488.00	8.55	0.0355121
5492.00	8.48	0.0355282
5496.00	8.42	0.0355198
5500.00	8.35	0.0355146
5504.00	8.28	0.0355067
5508.00	8.21	0.0355110
5512.00	8.15	0.0354981
5516.00	8.08	0.0355146
5520.00	8.01	0.0355190
5524.00	7.95	0.0355291
5528.00	7.88	0.0355177
5532.00	7.81	0.0355182
5536.00	7.75	0.0354932
5540.00	7.68	0.0354718
5544.00	7.61	0.0354676
5548.00	7.55	0.0354759
5552.00	7.48	0.0354599
5556.00	7.42	0.0354660
5560.00	7.35	0.0354643
5564.00	7.28	0.0354396
5568.00	7.21	0.0354133
5572.00	7.15	0.0353658
5576.00	7.08	0.0353453
5580.00	7.01	0.0353186
5584.00	6.95	0.0353063
5588.00	6.88	0.0353225
5592.00	6.82	0.0353149
5596.00	6.75	0.0353047
5600.00	6.68	0.0353151
5604.00	6.61	0.0353319
5608.00	6.55	0.0353304
5612.00	6.48	0.0353458
5616.00	6.41	0.0353561
5620.00	6.35	0.0353704
5624.00	6.28	0.0353651
5628.00	6.21	0.0353495
5632.00	6.15	0.0353677
5636.00	6.08	0.0353902
5640.00	6.01	0.0353689
5644.00	5.95	0.0353544
5648.00	5.88	0.0353345
5652.00	5.81	0.0353248
5656.00	5.75	0.0353404
5660.00	5.68	0.0353203
5664.00	5.61	0.0353092
5668.00	5.55	0.0352914
5672.00	5.48	0.0352479
5676.00	5.41	0.0352059
5680.00	5.35	0.0351925
5684.00	5.28	0.0352206
5688.00	5.21	0.0352228
5692.00	5.15	0.0352430
5696.00	5.08	0.0352166
5700.00	5.01	0.0352159
5704.00	4.95	0.0351973
5708.00	4.88	0.0352081
5712.00	4.81	0.0352062
5716.00	4.75	0.0351978
5720.00	4.68	0.0352014
5724.00	4.61	0.0351906
5728.00	4.54	0.0352096
5732.00	4.48	0.0352071
5736.00	4.41	0.0352007
5740.00	4.35	0.0352032
5744.00	4.28	0.0351855
5748.00	4.21	0.0351876
5752.00	4.15	0.0351847
5756.00	4.08	0.0351908
5760.00	4.01	0.0351937
5764.00	3.95	0.0351823
5768.00	3.88	0.0351857
5772.00	3.81	0.0351510
5776.00	3.75	0.0351163
5780.00	3.68	0.0350988
5784.00	3.61	0.0350961
5788.00	3.55	0.0350901
5792.00	3.48	0.0351006
5796.00	3.41	0.0350873
5800.00	3.35	0.0351053
5804.00	3.28	0.0351401
5808.00	3.21	0.0351394
5812.00	3.15	0.0351287
5816.00	3.08	0.0351205
5820.00	3.01	0.0350828
5824.00	2.95	0.0350747
5828.00	2.88	0.0350721
5832.00	2.81	0.0350427
5836.00	2.75	0.0350671
5840.00	2.68	0.0350693
5844.00	2.61	0.0350553
5848.00	2.55	0.0350203
5852.00	2.48	0.0350240
5856.00	2.42	0.0350427
5860.00	2.35	0.0350733
5864.00	2.28	0.0351067
5868.00	2.21	0.0351168
5872.00	2.15	0.0351155
5876.00	2.08	0.0351208
5880.00	2.01	0.0351000
5884.00	1.95	0.0350815
5888.00	1.88	0.0350671
5892.00	1.81	0.0350494
5896.00	1.75	0.0350480
5900.00	1.68	0.0350533
5904.00	1.61	0.0350712
5908.00	1.55	0.0350747
5912.00	1.48	0.0350792
5916.00	1.41	0.0350933
5920.00	1.35	0.0350705
5924.00	1.28	0.0350915
5928.00	1.21	0.0350820
5932.00	1.15	0.0350741
5936.00	1.08	0.0350565
5940.00	1.01	0.0350279
5944.00	0.95	0.0350217
5948.00	0.88	0.0350137
5952.00	0.81	0.0349770
5956.00	0.75	0.0349638
5960.00	0.68	0.0350063
5964.00	0.61	0.0351147
5968.00	0.55	0.0352373
5972.00	0.48	0.0352939
5976.00	0.41	0.0352906
5980.00	0.35	0.0352731
5984.00	0.28	0.0352308
5988.00	0.21	0.0352241
5992.00	0.15	0.0351987
5996.00	0.08	0.0351595
5999.90	0.01	0.0351100