File: Differential scanning calorimetry/12OCB Squalane/12OCB SqA wt fraction 424.txt
Filename	12OCBSqA424
Instrument name	DSC2A-00101 (192.168.10.4)
Operator	Yuma
rundate	3/16/2021
Sample name	12OCBSqA424
proceduresegments	Data Off ; Equilibrate 150.00 °C; Isothermal 10.0 min; Equilibrate 100.00 °C; Isothermal 5.0 min; Data On ; Ramp 1.00 °C/min to 0.00 °C; Ramp 5.00 °C/min to 150.00 °C; Data Off ; Isothermal 10.0 min; Modulate Temperature 1.00 °C for 60.0 s; Equilibrate 100.00 °C; Isothermal 10.0 min; Data On ; Ramp 1.00 °C/min to 0.00 °C; Data Off ; Equilibrate 0.00 °C; Modulate Temperature 1.00 °C for 60.0 s; Isothermal 5.0 min; Data On ; Ramp 3.00 °C/min to 100.00 °C; Jump 30.00 °C
[step]
Ramp 1.00 °C/min to 0.00 °C
Time	Temperature	Heat Flow (Normalized)
s	°C	W/g
0.00000	99.85	0.0171441
4.10000	99.84	0.0164078
8.20000	99.82	0.0135571
12.3000	99.77	0.0249522
16.4000	99.71	0.0344091
20.5000	99.65	0.0400499
24.6000	99.58	0.0431603
28.7000	99.52	0.0446772
32.8000	99.45	0.0458823
36.9000	99.38	0.0471620
41.0000	99.31	0.0480707
45.1000	99.25	0.0488276
49.2000	99.18	0.0494567
53.3000	99.11	0.0499225
57.4000	99.04	0.0503229
61.5000	98.97	0.0505888
65.6000	98.91	0.0508159
69.7000	98.84	0.0509733
73.8000	98.77	0.0510788
77.9000	98.70	0.0511206
82.0000	98.63	0.0511841
86.1000	98.56	0.0513106
90.2000	98.50	0.0513518
94.3000	98.43	0.0513554
98.4000	98.36	0.0514069
102.500	98.29	0.0514202
106.600	98.22	0.0514038
110.700	98.15	0.0513889
114.800	98.09	0.0513544
118.900	98.02	0.0513477
123.000	97.95	0.0513983
127.100	97.88	0.0514033
131.200	97.81	0.0513960
135.300	97.75	0.0513991
139.400	97.68	0.0513513
143.500	97.61	0.0513063
147.600	97.54	0.0513013
151.700	97.47	0.0513131
155.800	97.40	0.0513376
159.900	97.34	0.0513612
164.000	97.27	0.0513587
168.100	97.20	0.0513551
172.200	97.13	0.0513245
176.300	97.06	0.0512820
180.400	96.99	0.0513177
184.500	96.93	0.0512706
188.600	96.86	0.0513121
192.700	96.79	0.0512861
196.800	96.72	0.0513308
200.900	96.65	0.0513388
205.000	96.58	0.0513243
209.100	96.52	0.0512929
213.200	96.45	0.0513281
217.300	96.38	0.0513557
221.400	96.31	0.0513316
225.500	96.24	0.0513390
229.600	96.17	0.0513234
233.700	96.10	0.0512992
237.800	96.04	0.0513050
241.900	95.97	0.0512851
246.000	95.90	0.0513001
250.100	95.83	0.0512610
254.200	95.76	0.0512741
258.300	95.70	0.0512659
262.400	95.63	0.0512197
266.500	95.56	0.0512056
270.600	95.49	0.0511906
274.700	95.42	0.0511667
278.800	95.35	0.0511432
282.900	95.28	0.0511349
287.000	95.22	0.0511468
291.100	95.15	0.0511349
295.200	95.08	0.0511397
299.300	95.01	0.0511248
303.400	94.94	0.0511206
307.500	94.88	0.0511210
311.600	94.81	0.0511318
315.700	94.74	0.0511167
319.800	94.67	0.0511793
323.900	94.60	0.0511752
328.000	94.53	0.0511430
332.100	94.46	0.0511098
336.200	94.40	0.0511687
340.300	94.33	0.0511326
344.400	94.26	0.0511133
348.500	94.19	0.0511239
352.600	94.12	0.0511215
356.700	94.06	0.0510918
360.800	93.99	0.0510776
364.900	93.92	0.0510296
369.000	93.85	0.0510016
373.100	93.78	0.0510040
377.200	93.71	0.0509873
381.300	93.65	0.0509881
385.400	93.58	0.0509861
389.500	93.51	0.0509722
393.600	93.44	0.0510026
397.700	93.37	0.0509621
401.800	93.30	0.0509831
405.900	93.24	0.0509906
410.000	93.17	0.0510025
414.100	93.10	0.0510148
418.200	93.03	0.0509838
422.300	92.96	0.0509955
426.400	92.89	0.0510247
430.500	92.83	0.0509785
434.600	92.76	0.0509782
438.700	92.69	0.0509479
442.800	92.62	0.0509376
446.900	92.55	0.0509450
451.000	92.48	0.0509515
455.100	92.41	0.0509633
459.200	92.35	0.0509305
463.300	92.28	0.0509161
467.400	92.21	0.0509554
471.500	92.14	0.0509429
475.600	92.07	0.0510121
479.700	92.01	0.0509804
483.800	91.94	0.0509675
487.900	91.87	0.0510002
492.000	91.80	0.0509694
496.100	91.73	0.0509009
500.200	91.66	0.0509791
504.300	91.59	0.0509423
508.400	91.53	0.0509158
512.500	91.46	0.0508807
516.600	91.39	0.0508627
520.700	91.32	0.0509040
524.800	91.25	0.0509309
528.900	91.18	0.0509518
533.000	91.12	0.0508934
537.100	91.05	0.0508737
541.200	90.98	0.0508782
545.300	90.91	0.0508661
549.400	90.84	0.0508679
553.500	90.78	0.0509104
557.600	90.71	0.0508902
561.700	90.64	0.0509123
565.800	90.57	0.0509035
569.900	90.50	0.0508899
574.000	90.43	0.0508693
578.100	90.36	0.0508808
582.200	90.30	0.0508671
586.300	90.23	0.0508369
590.400	90.16	0.0508116
594.500	90.09	0.0508292
598.600	90.02	0.0508579
602.700	89.95	0.0508304
606.800	89.89	0.0508424
610.900	89.82	0.0508543
615.000	89.75	0.0508595
619.100	89.68	0.0508335
623.200	89.61	0.0508281
627.300	89.55	0.0508045
631.400	89.48	0.0508415
635.500	89.41	0.0508174
639.600	89.34	0.0508513
643.700	89.27	0.0508092
647.800	89.20	0.0508093
651.900	89.14	0.0507922
656.000	89.07	0.0507453
660.100	89.00	0.0507396
664.200	88.93	0.0507381
668.300	88.86	0.0507345
672.400	88.79	0.0507219
676.500	88.73	0.0507808
680.600	88.66	0.0507988
684.700	88.59	0.0507763
688.800	88.52	0.0507854
692.900	88.45	0.0508136
697.000	88.38	0.0507993
701.100	88.31	0.0507825
705.200	88.25	0.0507999
709.300	88.18	0.0508100
713.400	88.11	0.0507597
717.500	88.04	0.0507739
721.600	87.97	0.0507845
725.700	87.90	0.0507433
729.800	87.84	0.0507235
733.900	87.77	0.0507322
738.000	87.70	0.0507232
742.100	87.63	0.0506924
746.200	87.56	0.0507042
750.300	87.50	0.0506852
754.400	87.43	0.0507099
758.500	87.36	0.0507185
762.600	87.29	0.0507284
766.700	87.22	0.0507297
770.800	87.15	0.0507082
774.900	87.08	0.0507010
779.000	87.01	0.0507337
783.100	86.95	0.0507062
787.200	86.88	0.0507310
791.300	86.81	0.0507251
795.400	86.74	0.0507521
799.500	86.68	0.0507406
803.600	86.61	0.0507393
807.700	86.54	0.0507443
811.800	86.47	0.0507367
815.900	86.40	0.0507114
820.000	86.33	0.0507009
824.100	86.27	0.0506811
828.200	86.20	0.0507500
832.300	86.13	0.0507605
836.400	86.06	0.0507500
840.500	85.99	0.0507129
844.600	85.92	0.0507020
848.700	85.86	0.0507447
852.800	85.79	0.0506720
856.900	85.72	0.0507183
861.000	85.65	0.0506668
865.100	85.58	0.0507021
869.200	85.51	0.0507404
873.300	85.45	0.0507071
877.400	85.38	0.0506958
881.500	85.31	0.0507950
885.600	85.24	0.0507592
889.700	85.17	0.0507590
893.800	85.10	0.0507594
897.900	85.04	0.0507190
902.000	84.97	0.0507256
906.100	84.90	0.0506963
910.200	84.83	0.0506522
914.300	84.76	0.0507028
918.400	84.69	0.0507359
922.500	84.63	0.0507243
926.600	84.56	0.0507005
930.700	84.49	0.0506687
934.800	84.42	0.0506537
938.900	84.35	0.0506078
943.000	84.28	0.0506172
947.100	84.21	0.0505994
951.200	84.15	0.0505916
955.300	84.08	0.0505538
959.400	84.01	0.0505806
963.500	83.94	0.0505502
967.600	83.87	0.0505539
971.700	83.81	0.0505644
975.800	83.74	0.0505095
979.900	83.67	0.0505809
984.000	83.60	0.0506206
988.100	83.53	0.0506353
992.200	83.46	0.0506279
996.300	83.39	0.0506218
1000.40	83.33	0.0505908
1004.50	83.26	0.0505853
1008.60	83.19	0.0505720
1012.70	83.12	0.0504909
1016.80	83.05	0.0505078
1020.90	82.99	0.0505403
1025.00	82.92	0.0505899
1029.10	82.85	0.0505257
1033.20	82.78	0.0505439
1037.30	82.71	0.0505427
1041.40	82.64	0.0505859
1045.50	82.57	0.0505753
1049.60	82.51	0.0505929
1053.70	82.44	0.0505964
1057.80	82.37	0.0505924
1061.90	82.30	0.0505738
1066.00	82.23	0.0505983
1070.10	82.17	0.0506230
1074.20	82.10	0.0505810
1078.30	82.03	0.0505859
1082.40	81.96	0.0505489
1086.50	81.89	0.0505568
1090.60	81.82	0.0505934
1094.70	81.76	0.0505754
1098.80	81.69	0.0505717
1102.90	81.62	0.0505770
1107.00	81.55	0.0505531
1111.10	81.48	0.0505839
1115.20	81.41	0.0505439
1119.30	81.35	0.0505393
1123.40	81.28	0.0505109
1127.50	81.21	0.0505538
1131.60	81.14	0.0506045
1135.70	81.07	0.0505737
1139.80	81.00	0.0505657
1143.90	80.94	0.0505463
1148.00	80.87	0.0505438
1152.10	80.80	0.0505626
1156.20	80.73	0.0505935
1160.30	80.66	0.0506230
1164.40	80.59	0.0506319
1168.50	80.53	0.0506501
1172.60	80.46	0.0506431
1176.70	80.39	0.0506083
1180.80	80.32	0.0505716
1184.90	80.25	0.0505680
1189.00	80.18	0.0505928
1193.10	80.11	0.0506084
1197.20	80.05	0.0505767
1201.30	79.98	0.0505156
1205.40	79.91	0.0504793
1209.50	79.84	0.0504718
1213.60	79.77	0.0504742
1217.70	79.71	0.0504709
1221.80	79.64	0.0504898
1225.90	79.57	0.0505082
1230.00	79.50	0.0505453
1234.10	79.43	0.0505738
1238.20	79.36	0.0505138
1242.30	79.30	0.0505352
1246.40	79.23	0.0505159
1250.50	79.16	0.0505555
1254.60	79.09	0.0505461
1258.70	79.02	0.0505864
1262.80	78.95	0.0505983
1266.90	78.89	0.0506170
1271.00	78.82	0.0505866
1275.10	78.75	0.0505478
1279.20	78.68	0.0505606
1283.30	78.61	0.0505962
1287.40	78.54	0.0506164
1291.50	78.47	0.0505948
1295.60	78.41	0.0506221
1299.70	78.34	0.0505814
1303.80	78.27	0.0505941
1307.90	78.20	0.0505670
1312.00	78.13	0.0505448
1316.10	78.07	0.0505416
1320.20	78.00	0.0505129
1324.30	77.93	0.0505600
1328.40	77.86	0.0505317
1332.50	77.79	0.0505731
1336.60	77.72	0.0505751
1340.70	77.66	0.0505693
1344.80	77.59	0.0505994
1348.90	77.52	0.0506140
1353.00	77.45	0.0506104
1357.10	77.38	0.0505759
1361.20	77.31	0.0505815
1365.30	77.25	0.0505948
1369.40	77.18	0.0505649
1373.50	77.11	0.0505919
1377.60	77.04	0.0505881
1381.70	76.97	0.0505496
1385.80	76.90	0.0505971
1389.90	76.84	0.0505789
1394.00	76.77	0.0505459
1398.10	76.70	0.0505902
1402.20	76.63	0.0505429
1406.30	76.56	0.0505405
1410.40	76.49	0.0505454
1414.50	76.43	0.0505657
1418.60	76.36	0.0505810
1422.70	76.29	0.0505924
1426.80	76.22	0.0505944
1430.90	76.15	0.0505601
1435.00	76.08	0.0505355
1439.10	76.02	0.0505562
1443.20	75.95	0.0505599
1447.30	75.88	0.0505483
1451.40	75.81	0.0505653
1455.50	75.74	0.0505400
1459.60	75.67	0.0505730
1463.70	75.60	0.0505735
1467.80	75.54	0.0505485
1471.90	75.47	0.0505840
1476.00	75.40	0.0505976
1480.10	75.33	0.0505529
1484.20	75.26	0.0505544
1488.30	75.20	0.0506228
1492.40	75.13	0.0506349
1496.50	75.06	0.0506133
1500.60	74.99	0.0506235
1504.70	74.92	0.0506171
1508.80	74.85	0.0505623
1512.90	74.79	0.0505244
1517.00	74.72	0.0505335
1521.10	74.65	0.0505781
1525.20	74.58	0.0505573
1529.30	74.51	0.0505745
1533.40	74.44	0.0505876
1537.50	74.38	0.0506144
1541.60	74.31	0.0505289
1545.70	74.24	0.0505643
1549.80	74.17	0.0505369
1553.90	74.10	0.0505677
1558.00	74.03	0.0505723
1562.10	73.97	0.0505624
1566.20	73.90	0.0505488
1570.30	73.83	0.0505588
1574.40	73.76	0.0505775
1578.50	73.69	0.0505607
1582.60	73.62	0.0505710
1586.70	73.55	0.0506049
1590.80	73.49	0.0505935
1594.90	73.42	0.0506453
1599.00	73.35	0.0506288
1603.10	73.28	0.0505803
1607.20	73.21	0.0505965
1611.30	73.15	0.0505175
1615.40	73.08	0.0505647
1619.50	73.01	0.0504983
1623.60	72.94	0.0504684
1627.70	72.87	0.0505192
1631.80	72.80	0.0505297
1635.90	72.74	0.0505443
1640.00	72.67	0.0505128
1644.10	72.60	0.0506000
1648.20	72.53	0.0506074
1652.30	72.46	0.0505999
1656.40	72.39	0.0506158
1660.50	72.33	0.0505863
1664.60	72.26	0.0505937
1668.70	72.19	0.0505826
1672.80	72.12	0.0505986
1676.90	72.05	0.0506431
1681.00	71.98	0.0506549
1685.10	71.92	0.0506431
1689.20	71.85	0.0506430
1693.30	71.78	0.0505993
1697.40	71.71	0.0506122
1701.50	71.64	0.0506808
1705.60	71.57	0.0506636
1709.70	71.51	0.0506708
1713.80	71.44	0.0507098
1717.90	71.37	0.0506837
1722.00	71.30	0.0506941
1726.10	71.23	0.0507227
1730.20	71.16	0.0507394
1734.30	71.09	0.0507406
1738.40	71.03	0.0507388
1742.50	70.96	0.0507484
1746.60	70.89	0.0507566
1750.70	70.82	0.0507493
1754.80	70.75	0.0507922
1758.90	70.69	0.0507641
1763.00	70.62	0.0508018
1767.10	70.55	0.0508267
1771.20	70.48	0.0508481
1775.30	70.41	0.0508187
1779.40	70.34	0.0508149
1783.50	70.27	0.0508080
1787.60	70.21	0.0507775
1791.70	70.14	0.0508059
1795.80	70.07	0.0507783
1799.90	70.00	0.0508139
1804.00	69.93	0.0507781
1808.10	69.87	0.0508313
1812.20	69.80	0.0508227
1816.30	69.73	0.0508355
1820.40	69.66	0.0508371
1824.50	69.59	0.0508068
1828.60	69.52	0.0508933
1832.70	69.45	0.0508814
1836.80	69.39	0.0508323
1840.90	69.32	0.0508663
1845.00	69.25	0.0508665
1849.10	69.18	0.0508932
1853.20	69.11	0.0509248
1857.30	69.05	0.0508819
1861.40	68.98	0.0509011
1865.50	68.91	0.0508972
1869.60	68.84	0.0508924
1873.70	68.77	0.0508951
1877.80	68.70	0.0509074
1881.90	68.64	0.0508710
1886.00	68.57	0.0508887
1890.10	68.50	0.0509597
1894.20	68.43	0.0509570
1898.30	68.36	0.0509440
1902.40	68.29	0.0509465
1906.50	68.23	0.0509452
1910.60	68.16	0.0509589
1914.70	68.09	0.0510058
1918.80	68.02	0.0509978
1922.90	67.95	0.0509962
1927.00	67.88	0.0510324
1931.10	67.82	0.0510485
1935.20	67.75	0.0510339
1939.30	67.68	0.0510935
1943.40	67.61	0.0511202
1947.50	67.54	0.0511320
1951.60	67.47	0.0511288
1955.70	67.41	0.0511515
1959.80	67.34	0.0511555
1963.90	67.27	0.0511266
1968.00	67.20	0.0511564
1972.10	67.13	0.0512150
1976.20	67.06	0.0512427
1980.30	67.00	0.0512449
1984.40	66.93	0.0512709
1988.50	66.86	0.0512719
1992.60	66.79	0.0513015
1996.70	66.72	0.0513171
2000.80	66.65	0.0513553
2004.90	66.59	0.0513616
2009.00	66.52	0.0513961
2013.10	66.45	0.0514211
2017.20	66.38	0.0521082
2021.30	66.32	0.0594887
2025.40	66.26	0.0815714
2029.50	66.20	0.103071
2033.60	66.13	0.106818
2037.70	66.05	0.100426
2041.80	65.99	0.0943585
2045.90	65.92	0.0926113
2050.00	65.85	0.0911216
2054.10	65.78	0.0895433
2058.20	65.71	0.0880798
2062.30	65.64	0.0868518
2066.40	65.57	0.0857729
2070.50	65.50	0.0847252
2074.60	65.44	0.0836988
2078.70	65.37	0.0828506
2082.80	65.30	0.0821367
2086.90	65.23	0.0814742
2091.00	65.16	0.0808884
2095.10	65.09	0.0803002
2099.20	65.02	0.0797844
2103.30	64.96	0.0792884
2107.40	64.89	0.0788866
2111.50	64.82	0.0784774
2115.60	64.75	0.0781047
2119.70	64.68	0.0777218
2123.80	64.61	0.0773410
2127.90	64.54	0.0770124
2132.00	64.48	0.0766432
2136.10	64.41	0.0763042
2140.20	64.34	0.0759391
2144.30	64.27	0.0755807
2148.40	64.20	0.0752445
2152.50	64.13	0.0749689
2156.60	64.07	0.0747196
2160.70	64.00	0.0743949
2164.80	63.93	0.0740863
2168.90	63.86	0.0738078
2173.00	63.79	0.0734829
2177.10	63.72	0.0731377
2181.20	63.65	0.0728262
2185.30	63.59	0.0725573
2189.40	63.52	0.0722640
2193.50	63.45	0.0719686
2197.60	63.38	0.0717184
2201.70	63.31	0.0714154
2205.80	63.24	0.0711230
2209.90	63.18	0.0708653
2214.00	63.11	0.0705521
2218.10	63.04	0.0702626
2222.20	62.97	0.0700237
2226.30	62.90	0.0697249
2230.40	62.83	0.0694402
2234.50	62.76	0.0691408
2238.60	62.70	0.0688890
2242.70	62.63	0.0685715
2246.80	62.56	0.0683480
2250.90	62.49	0.0680634
2255.00	62.42	0.0677841
2259.10	62.35	0.0674824
2263.20	62.29	0.0672576
2267.30	62.22	0.0669737
2271.40	62.15	0.0667639
2275.50	62.08	0.0665421
2279.60	62.01	0.0662875
2283.70	61.94	0.0660100
2287.80	61.88	0.0658404
2291.90	61.81	0.0655674
2296.00	61.74	0.0653795
2300.10	61.67	0.0651514
2304.20	61.60	0.0649736
2308.30	61.53	0.0647708
2312.40	61.47	0.0645598
2316.50	61.40	0.0643241
2320.60	61.33	0.0641043
2324.70	61.26	0.0638916
2328.80	61.19	0.0636686
2332.90	61.12	0.0634025
2337.00	61.05	0.0631910
2341.10	60.99	0.0630153
2345.20	60.92	0.0628698
2349.30	60.85	0.0626901
2353.40	60.78	0.0625408
2357.50	60.71	0.0623587
2361.60	60.64	0.0621831
2365.70	60.58	0.0619657
2369.80	60.51	0.0617912
2373.90	60.44	0.0615741
2378.00	60.37	0.0613940
2382.10	60.30	0.0612391
2386.20	60.23	0.0610609
2390.30	60.17	0.0608525
2394.40	60.10	0.0606887
2398.50	60.03	0.0605774
2402.60	59.96	0.0604712
2406.70	59.89	0.0602955
2410.80	59.82	0.0601460
2414.90	59.75	0.0599538
2419.00	59.69	0.0598124
2423.10	59.62	0.0596533
2427.20	59.55	0.0595004
2431.30	59.48	0.0593889
2435.40	59.41	0.0592518
2439.50	59.34	0.0590873
2443.60	59.28	0.0589599
2447.70	59.21	0.0588804
2451.80	59.14	0.0587448
2455.90	59.07	0.0586071
2460.00	59.00	0.0585133
2464.10	58.93	0.0583580
2468.20	58.87	0.0582169
2472.30	58.80	0.0581194
2476.40	58.73	0.0579812
2480.50	58.66	0.0578401
2484.60	58.59	0.0577125
2488.70	58.52	0.0575846
2492.80	58.46	0.0574301
2496.90	58.39	0.0572870
2501.00	58.32	0.0571819
2505.10	58.25	0.0570776
2509.20	58.18	0.0570259
2513.30	58.11	0.0568980
2517.40	58.04	0.0567892
2521.50	57.98	0.0567165
2525.60	57.91	0.0566410
2529.70	57.84	0.0565705
2533.80	57.77	0.0564387
2537.90	57.70	0.0563783
2542.00	57.64	0.0562556
2546.10	57.57	0.0561957
2550.20	57.50	0.0560971
2554.30	57.43	0.0559943
2558.40	57.36	0.0559266
2562.50	57.29	0.0558747
2566.60	57.22	0.0558246
2570.70	57.16	0.0556876
2574.80	57.09	0.0556170
2578.90	57.02	0.0555587
2583.00	56.95	0.0554773
2587.10	56.88	0.0554293
2591.20	56.81	0.0552891
2595.30	56.75	0.0551814
2599.40	56.68	0.0551230
2603.50	56.61	0.0550273
2607.60	56.54	0.0549711
2611.70	56.47	0.0549286
2615.80	56.40	0.0548430
2619.90	56.34	0.0547927
2624.00	56.27	0.0547426
2628.10	56.20	0.0546937
2632.20	56.13	0.0546476
2636.30	56.06	0.0545843
2640.40	55.99	0.0545399
2644.50	55.93	0.0544278
2648.60	55.86	0.0543336
2652.70	55.79	0.0543333
2656.80	55.72	0.0542749
2660.90	55.65	0.0541522
2665.00	55.58	0.0540665
2669.10	55.52	0.0540588
2673.20	55.45	0.0540079
2677.30	55.38	0.0539545
2681.40	55.31	0.0539082
2685.50	55.24	0.0538849
2689.60	55.17	0.0537886
2693.70	55.11	0.0537536
2697.80	55.04	0.0537063
2701.90	54.97	0.0536058
2706.00	54.90	0.0535495
2710.10	54.83	0.0534862
2714.20	54.76	0.0534786
2718.30	54.70	0.0534254
2722.40	54.63	0.0534229
2726.50	54.56	0.0533787
2730.60	54.49	0.0533752
2734.70	54.42	0.0533231
2738.80	54.35	0.0532892
2742.90	54.29	0.0532489
2747.00	54.22	0.0532202
2751.10	54.15	0.0531574
2755.20	54.08	0.0530754
2759.30	54.01	0.0530895
2763.40	53.94	0.0530332
2767.50	53.88	0.0529860
2771.60	53.81	0.0529473
2775.70	53.74	0.0529617
2779.80	53.67	0.0528934
2783.90	53.60	0.0528509
2788.00	53.53	0.0528655
2792.10	53.46	0.0528099
2796.20	53.40	0.0527956
2800.30	53.33	0.0526872
2804.40	53.26	0.0526610
2808.50	53.19	0.0526142
2812.60	53.12	0.0525743
2816.70	53.06	0.0525861
2820.80	52.99	0.0525456
2824.90	52.92	0.0525044
2829.00	52.85	0.0524498
2833.10	52.78	0.0524350
2837.20	52.71	0.0523680
2841.30	52.65	0.0523440
2845.40	52.58	0.0522846
2849.50	52.51	0.0522662
2853.60	52.44	0.0521939
2857.70	52.37	0.0522363
2861.80	52.30	0.0521660
2865.90	52.23	0.0521365
2870.00	52.17	0.0521176
2874.10	52.10	0.0520809
2878.20	52.03	0.0520386
2882.30	51.96	0.0519700
2886.40	51.89	0.0519599
2890.50	51.83	0.0519593
2894.60	51.76	0.0519901
2898.70	51.69	0.0519575
2902.80	51.62	0.0519336
2906.90	51.55	0.0519147
2911.00	51.48	0.0519038
2915.10	51.42	0.0518417
2919.20	51.35	0.0517577
2923.30	51.28	0.0516746
2927.40	51.21	0.0516568
2931.50	51.14	0.0516624
2935.60	51.07	0.0516798
2939.70	51.01	0.0516500
2943.80	50.94	0.0516284
2947.90	50.87	0.0515819
2952.00	50.80	0.0514871
2956.10	50.73	0.0515064
2960.20	50.66	0.0514605
2964.30	50.59	0.0515128
2968.40	50.53	0.0515265
2972.50	50.46	0.0515155
2976.60	50.39	0.0514950
2980.70	50.32	0.0514957
2984.80	50.25	0.0514544
2988.90	50.19	0.0514295
2993.00	50.12	0.0514049
2997.10	50.05	0.0513797
3001.20	49.98	0.0513283
3005.30	49.91	0.0512975
3009.40	49.84	0.0513006
3013.50	49.77	0.0512734
3017.60	49.71	0.0512201
3021.70	49.64	0.0512332
3025.80	49.57	0.0512101
3029.90	49.50	0.0512014
3034.00	49.43	0.0511623
3038.10	49.36	0.0511668
3042.20	49.30	0.0511328
3046.30	49.23	0.0510675
3050.40	49.16	0.0510525
3054.50	49.09	0.0510381
3058.60	49.02	0.0510455
3062.70	48.96	0.0509731
3066.80	48.89	0.0509397
3070.90	48.82	0.0509614
3075.00	48.75	0.0509917
3079.10	48.68	0.0510045
3083.20	48.61	0.0509665
3087.30	48.54	0.0509338
3091.40	48.48	0.0509118
3095.50	48.41	0.0508887
3099.60	48.34	0.0508431
3103.70	48.27	0.0508412
3107.80	48.20	0.0508180
3111.90	48.13	0.0508228
3116.00	48.07	0.0507760
3120.10	48.00	0.0507464
3124.20	47.93	0.0507002
3128.30	47.86	0.0507043
3132.40	47.79	0.0506633
3136.50	47.72	0.0506982
3140.60	47.66	0.0507028
3144.70	47.59	0.0507101
3148.80	47.52	0.0507049
3152.90	47.45	0.0507547
3157.00	47.38	0.0507774
3161.10	47.31	0.0507577
3165.20	47.25	0.0506923
3169.30	47.18	0.0506539
3173.40	47.11	0.0506277
3177.50	47.04	0.0505399
3181.60	46.97	0.0505959
3185.70	46.90	0.0506566
3189.80	46.83	0.0506198
3193.90	46.77	0.0505555
3198.00	46.70	0.0505178
3202.10	46.63	0.0504499
3206.20	46.56	0.0503902
3210.30	46.49	0.0503756
3214.40	46.43	0.0503409
3218.50	46.36	0.0503426
3222.60	46.29	0.0503597
3226.70	46.22	0.0503831
3230.80	46.15	0.0503602
3234.90	46.08	0.0503964
3239.00	46.02	0.0503900
3243.10	45.95	0.0503994
3247.20	45.88	0.0503974
3251.30	45.81	0.0503596
3255.40	45.74	0.0503359
3259.50	45.67	0.0502307
3263.60	45.61	0.0502139
3267.70	45.54	0.0501976
3271.80	45.47	0.0501800
3275.90	45.40	0.0501836
3280.00	45.33	0.0501493
3284.10	45.26	0.0500968
3288.20	45.20	0.0500758
3292.30	45.13	0.0500689
3296.40	45.06	0.0500357
3300.50	44.99	0.0501326
3304.60	44.92	0.0501434
3308.70	44.85	0.0501828
3312.80	44.78	0.0501557
3316.90	44.72	0.0501519
3321.00	44.65	0.0442948
3325.10	44.66	-0.0323225
3329.20	44.97	0.329295
3333.30	45.23	1.89241
3337.40	45.21	2.15680
3341.50	45.13	2.16531
3345.60	45.08	2.08353
3349.70	45.11	2.28370
3353.80	44.93	2.83995
3357.90	44.47	1.51308
3362.00	44.20	0.840744
3366.10	44.02	0.466141
3370.20	43.89	0.270530
3374.30	43.80	0.165607
3378.40	43.71	0.110956
3382.50	43.63	0.0823894
3386.60	43.56	0.0677017
3390.70	43.49	0.0603580
3394.80	43.42	0.0563127
3398.90	43.35	0.0547604
3403.00	43.28	0.0536797
3407.10	43.21	0.0527520
3411.20	43.15	0.0519890
3415.30	43.08	0.0513300
3419.40	43.01	0.0508170
3423.50	42.94	0.0504300
3427.60	42.87	0.0500997
3431.70	42.80	0.0498838
3435.80	42.73	0.0496400
3439.90	42.67	0.0493875
3444.00	42.60	0.0492246
3448.10	42.53	0.0490603
3452.20	42.46	0.0489398
3456.30	42.39	0.0488301
3460.40	42.32	0.0487453
3464.50	42.26	0.0487049
3468.60	42.19	0.0486313
3472.70	42.12	0.0485792
3476.80	42.05	0.0485466
3480.90	41.98	0.0485489
3485.00	41.92	0.0484662
3489.10	41.85	0.0484150
3493.20	41.78	0.0483413
3497.30	41.71	0.0483410
3501.40	41.64	0.0483321
3505.50	41.57	0.0482740
3509.60	41.50	0.0481854
3513.70	41.44	0.0481428
3517.80	41.37	0.0480570
3521.90	41.30	0.0479592
3526.00	41.23	0.0478763
3530.10	41.16	0.0478259
3534.20	41.09	0.0478306
3538.30	41.03	0.0477764
3542.40	40.96	0.0477265
3546.50	40.89	0.0476943
3550.60	40.82	0.0476770
3554.70	40.75	0.0476450
3558.80	40.68	0.0475808
3562.90	40.61	0.0476034
3567.00	40.55	0.0475264
3571.10	40.48	0.0474410
3575.20	40.41	0.0474253
3579.30	40.34	0.0473683
3583.40	40.27	0.0473348
3587.50	40.20	0.0472925
3591.60	40.14	0.0472583
3595.70	40.07	0.0471609
3599.80	40.00	0.0471334
3603.90	39.93	0.0471121
3608.00	39.86	0.0471363
3612.10	39.80	0.0471025
3616.20	39.73	0.0471216
3620.30	39.66	0.0470691
3624.40	39.59	0.0470550
3628.50	39.52	0.0470156
3632.60	39.45	0.0469545
3636.70	39.39	0.0469197
3640.80	39.32	0.0468743
3644.90	39.25	0.0468113
3649.00	39.18	0.0468043
3653.10	39.11	0.0468301
3657.20	39.04	0.0468133
3661.30	38.98	0.0468280
3665.40	38.91	0.0467467
3669.50	38.84	0.0467149
3673.60	38.77	0.0466995
3677.70	38.70	0.0466996
3681.80	38.63	0.0466891
3685.90	38.56	0.0466382
3690.00	38.50	0.0466558
3694.10	38.43	0.0465976
3698.20	38.36	0.0465748
3702.30	38.29	0.0465638
3706.40	38.22	0.0465326
3710.50	38.15	0.0465222
3714.60	38.09	0.0464745
3718.70	38.02	0.0464296
3722.80	37.95	0.0463801
3726.90	37.88	0.0463587
3731.00	37.81	0.0463373
3735.10	37.75	0.0463061
3739.20	37.68	0.0463198
3743.30	37.61	0.0462840
3747.40	37.54	0.0462674
3751.50	37.47	0.0462280
3755.60	37.40	0.0462447
3759.70	37.34	0.0462264
3763.80	37.27	0.0462259
3767.90	37.20	0.0462120
3772.00	37.13	0.0461454
3776.10	37.06	0.0461912
3780.20	36.99	0.0462364
3784.30	36.93	0.0462974
3788.40	36.86	0.0462748
3792.50	36.79	0.0462121
3796.60	36.72	0.0462547
3800.70	36.65	0.0461920
3804.80	36.58	0.0461135
3808.90	36.52	0.0460997
3813.00	36.45	0.0460629
3817.10	36.38	0.0460602
3821.20	36.31	0.0460443
3825.30	36.24	0.0460337
3829.40	36.17	0.0459672
3833.50	36.11	0.0459355
3837.60	36.04	0.0459245
3841.70	35.97	0.0459272
3845.80	35.90	0.0458959
3849.90	35.83	0.0458474
3854.00	35.76	0.0458549
3858.10	35.70	0.0458507
3862.20	35.63	0.0458643
3866.30	35.56	0.0458546
3870.40	35.49	0.0458548
3874.50	35.42	0.0458207
3878.60	35.35	0.0458106
3882.70	35.28	0.0457719
3886.80	35.22	0.0457279
3890.90	35.15	0.0457193
3895.00	35.08	0.0456749
3899.10	35.01	0.0456944
3903.20	34.94	0.0456647
3907.30	34.87	0.0456326
3911.40	34.81	0.0455942
3915.50	34.74	0.0455322
3919.60	34.67	0.0455353
3923.70	34.60	0.0455081
3927.80	34.53	0.0454990
3931.90	34.47	0.0454638
3936.00	34.40	0.0454605
3940.10	34.33	0.0454207
3944.20	34.26	0.0454268
3948.30	34.19	0.0454365
3952.40	34.12	0.0454552
3956.50	34.05	0.0454630
3960.60	33.99	0.0454531
3964.70	33.92	0.0454266
3968.80	33.85	0.0454103
3972.90	33.78	0.0453539
3977.00	33.71	0.0453365
3981.10	33.64	0.0453361
3985.20	33.58	0.0453096
3989.30	33.51	0.0453016
3993.40	33.44	0.0452835
3997.50	33.37	0.0452802
4001.60	33.30	0.0452521
4005.70	33.23	0.0452615
4009.80	33.17	0.0452360
4013.90	33.10	0.0452052
4018.00	33.03	0.0451478
4022.10	32.96	0.0451455
4026.20	32.89	0.0451424
4030.30	32.83	0.0450900
4034.40	32.76	0.0451027
4038.50	32.69	0.0450826
4042.60	32.62	0.0450404
4046.70	32.55	0.0450107
4050.80	32.48	0.0450059
4054.90	32.41	0.0449920
4059.00	32.35	0.0450412
4063.10	32.28	0.0450384
4067.20	32.21	0.0450282
4071.30	32.14	0.0449635
4075.40	32.07	0.0449460
4079.50	32.00	0.0449410
4083.60	31.94	0.0449009
4087.70	31.87	0.0448889
4091.80	31.80	0.0448559
4095.90	31.73	0.0447786
4100.00	31.66	0.0447414
4104.10	31.59	0.0447389
4108.20	31.53	0.0447169
4112.30	31.46	0.0447583
4116.40	31.39	0.0447384
4120.50	31.32	0.0447018
4124.60	31.25	0.0447407
4128.70	31.18	0.0446917
4132.80	31.12	0.0446967
4136.90	31.05	0.0446874
4141.00	30.98	0.0446719
4145.10	30.91	0.0446813
4149.20	30.84	0.0446616
4153.30	30.77	0.0445505
4157.40	30.71	0.0445695
4161.50	30.64	0.0445569
4165.60	30.57	0.0445075
4169.70	30.50	0.0444743
4173.80	30.43	0.0444308
4177.90	30.36	0.0444388
4182.00	30.30	0.0444261
4186.10	30.23	0.0444181
4190.20	30.16	0.0443977
4194.30	30.09	0.0443495
4198.40	30.02	0.0442919
4202.50	29.95	0.0443284
4206.60	29.88	0.0443145
4210.70	29.82	0.0443281
4214.80	29.75	0.0443368
4218.90	29.68	0.0442755
4223.00	29.61	0.0442197
4227.10	29.54	0.0442204
4231.20	29.48	0.0442242
4235.30	29.41	0.0441082
4239.40	29.34	0.0441845
4243.50	29.27	0.0441317
4247.60	29.20	0.0441169
4251.70	29.13	0.0441289
4255.80	29.07	0.0440879
4259.90	29.00	0.0440544
4264.00	28.93	0.0440499
4268.10	28.86	0.0440075
4272.20	28.79	0.0440156
4276.30	28.72	0.0440001
4280.40	28.66	0.0439900
4284.50	28.59	0.0440028
4288.60	28.52	0.0439648
4292.70	28.45	0.0440022
4296.80	28.38	0.0439967
4300.90	28.31	0.0440169
4305.00	28.25	0.0439633
4309.10	28.18	0.0439309
4313.20	28.11	0.0439512
4317.30	28.04	0.0439804
4321.40	27.97	0.0440197
4325.50	27.90	0.0439622
4329.60	27.83	0.0439111
4333.70	27.77	0.0438417
4337.80	27.70	0.0438604
4341.90	27.63	0.0438094
4346.00	27.56	0.0438042
4350.10	27.49	0.0438093
4354.20	27.42	0.0437439
4358.30	27.36	0.0437828
4362.40	27.29	0.0437957
4366.50	27.22	0.0437355
4370.60	27.15	0.0437456
4374.70	27.08	0.0436600
4378.80	27.01	0.0436526
4382.90	26.95	0.0435951
4387.00	26.88	0.0435858
4391.10	26.81	0.0435511
4395.20	26.74	0.0434990
4399.30	26.67	0.0435003
4403.40	26.61	0.0435136
4407.50	26.54	0.0434777
4411.60	26.47	0.0434885
4415.70	26.40	0.0434967
4419.80	26.33	0.0435158
4423.90	26.26	0.0434614
4428.00	26.19	0.0434346
4432.10	26.13	0.0434622
4436.20	26.06	0.0434390
4440.30	25.99	0.0434274
4444.40	25.92	0.0433820
4448.50	25.85	0.0433993
4452.60	25.78	0.0433490
4456.70	25.72	0.0433484
4460.80	25.65	0.0433231
4464.90	25.58	0.0433057
4469.00	25.51	0.0432997
4473.10	25.44	0.0432956
4477.20	25.37	0.0432761
4481.30	25.31	0.0432781
4485.40	25.24	0.0433112
4489.50	25.17	0.0433089
4493.60	25.10	0.0432641
4497.70	25.03	0.0432840
4501.80	24.96	0.0432930
4505.90	24.90	0.0432644
4510.00	24.83	0.0432099
4514.10	24.76	0.0432290
4518.20	24.69	0.0432191
4522.30	24.62	0.0431989
4526.40	24.55	0.0432403
4530.50	24.49	0.0432150
4534.60	24.42	0.0431957
4538.70	24.35	0.0431489
4542.80	24.28	0.0431925
4546.90	24.21	0.0431193
4551.00	24.14	0.0430805
4555.10	24.07	0.0430682
4559.20	24.01	0.0430541
4563.30	23.94	0.0430701
4567.40	23.87	0.0430425
4571.50	23.80	0.0430357
4575.60	23.73	0.0430170
4579.70	23.67	0.0430374
4583.80	23.60	0.0430274
4587.90	23.53	0.0430008
4592.00	23.46	0.0430145
4596.10	23.39	0.0430019
4600.20	23.32	0.0429657
4604.30	23.26	0.0429659
4608.40	23.19	0.0429210
4612.50	23.12	0.0428696
4616.60	23.05	0.0428407
4620.70	22.98	0.0428487
4624.80	22.91	0.0428347
4628.90	22.84	0.0428494
4633.00	22.78	0.0428245
4637.10	22.71	0.0428222
4641.20	22.64	0.0428123
4645.30	22.57	0.0428034
4649.40	22.50	0.0427720
4653.50	22.43	0.0427894
4657.60	22.37	0.0427294
4661.70	22.30	0.0427084
4665.80	22.23	0.0426857
4669.90	22.16	0.0427188
4674.00	22.09	0.0427027
4678.10	22.02	0.0426767
4682.20	21.96	0.0426742
4686.30	21.89	0.0426686
4690.40	21.82	0.0426217
4694.50	21.75	0.0425675
4698.60	21.68	0.0426300
4702.70	21.62	0.0426283
4706.80	21.55	0.0425628
4710.90	21.48	0.0425197
4715.00	21.41	0.0424957
4719.10	21.34	0.0425287
4723.20	21.27	0.0425358
4727.30	21.20	0.0425554
4731.40	21.14	0.0425327
4735.50	21.07	0.0425295
4739.60	21.00	0.0425246
4743.70	20.93	0.0425148
4747.80	20.86	0.0424588
4751.90	20.79	0.0424615
4756.00	20.73	0.0424667
4760.10	20.66	0.0424166
4764.20	20.59	0.0423978
4768.30	20.52	0.0423733
4772.40	20.45	0.0423452
4776.50	20.38	0.0423622
4780.60	20.32	0.0423475
4784.70	20.25	0.0422836
4788.80	20.18	0.0423166
4792.90	20.11	0.0423152
4797.00	20.04	0.0423574
4801.10	19.97	0.0423173
4805.20	19.91	0.0422924
4809.30	19.84	0.0422927
4813.40	19.77	0.0423154
4817.50	19.70	0.0422371
4821.60	19.63	0.0422911
4825.70	19.56	0.0422412
4829.80	19.50	0.0422304
4833.90	19.43	0.0422107
4838.00	19.36	0.0422117
4842.10	19.29	0.0422188
4846.20	19.22	0.0422098
4850.30	19.16	0.0421739
4854.40	19.09	0.0421760
4858.50	19.02	0.0421680
4862.60	18.95	0.0420948
4866.70	18.88	0.0421106
4870.80	18.81	0.0421253
4874.90	18.74	0.0421333
4879.00	18.68	0.0420874
4883.10	18.61	0.0420442
4887.20	18.54	0.0420252
4891.30	18.47	0.0419435
4895.40	18.40	0.0419098
4899.50	18.33	0.0419606
4903.60	18.27	0.0419131
4907.70	18.20	0.0419366
4911.80	18.13	0.0419603
4915.90	18.06	0.0419734
4920.00	17.99	0.0419509
4924.10	17.92	0.0419470
4928.20	17.86	0.0419027
4932.30	17.79	0.0419004
4936.40	17.72	0.0419004
4940.50	17.65	0.0418503
4944.60	17.58	0.0418206
4948.70	17.51	0.0418179
4952.80	17.45	0.0417827
4956.90	17.38	0.0417802
4961.00	17.31	0.0417985
4965.10	17.24	0.0417961
4969.20	17.17	0.0417867
4973.30	17.11	0.0418044
4977.40	17.04	0.0418382
4981.50	16.97	0.0417982
4985.60	16.90	0.0418029
4989.70	16.83	0.0417350
4993.80	16.76	0.0417539
4997.90	16.69	0.0416805
5002.00	16.63	0.0416900
5006.10	16.56	0.0416902
5010.20	16.49	0.0416471
5014.30	16.42	0.0416698
5018.40	16.35	0.0416195
5022.50	16.28	0.0416092
5026.60	16.22	0.0415736
5030.70	16.15	0.0415668
5034.80	16.08	0.0415246
5038.90	16.01	0.0414655
5043.00	15.94	0.0414924
5047.10	15.87	0.0415032
5051.20	15.81	0.0414622
5055.30	15.74	0.0415330
5059.40	15.67	0.0414788
5063.50	15.60	0.0414610
5067.60	15.53	0.0414524
5071.70	15.46	0.0414280
5075.80	15.40	0.0414249
5079.90	15.33	0.0414044
5084.00	15.26	0.0413702
5088.10	15.19	0.0413271
5092.20	15.12	0.0413504
5096.30	15.05	0.0413378
5100.40	14.99	0.0412995
5104.50	14.92	0.0413217
5108.60	14.85	0.0413565
5112.70	14.78	0.0412601
5116.80	14.71	0.0412564
5120.90	14.64	0.0412925
5125.00	14.57	0.0412574
5129.10	14.51	0.0412309
5133.20	14.44	0.0412466
5137.30	14.37	0.0412284
5141.40	14.30	0.0411952
5145.50	14.23	0.0411526
5149.60	14.17	0.0411429
5153.70	14.10	0.0411540
5157.80	14.03	0.0411728
5161.90	13.96	0.0411295
5166.00	13.89	0.0411148
5170.10	13.83	0.0410731
5174.20	13.76	0.0410720
5178.30	13.69	0.0411270
5182.40	13.62	0.0410898
5186.50	13.55	0.0410934
5190.60	13.48	0.0410793
5194.70	13.41	0.0410578
5198.80	13.35	0.0410239
5202.90	13.28	0.0410643
5207.00	13.21	0.0410474
5211.10	13.14	0.0409994
5215.20	13.07	0.0409434
5219.30	13.00	0.0409023
5223.40	12.94	0.0409342
5227.50	12.87	0.0409214
5231.60	12.80	0.0409441
5235.70	12.73	0.0409247
5239.80	12.66	0.0408869
5243.90	12.59	0.0408913
5248.00	12.53	0.0408812
5252.10	12.46	0.0408898
5256.20	12.39	0.0408293
5260.30	12.32	0.0408423
5264.40	12.25	0.0408501
5268.50	12.18	0.0408435
5272.60	12.12	0.0408027
5276.70	12.05	0.0407761
5280.80	11.98	0.0408112
5284.90	11.91	0.0408132
5289.00	11.84	0.0408549
5293.10	11.77	0.0409136
5297.20	11.71	0.0408304
5301.30	11.64	0.0408655
5305.40	11.57	0.0407827
5309.50	11.50	0.0407724
5313.60	11.43	0.0407775
5317.70	11.36	0.0407684
5321.80	11.29	0.0407591
5325.90	11.23	0.0406386
5330.00	11.16	0.0407289
5334.10	11.09	0.0406892
5338.20	11.02	0.0406967
5342.30	10.95	0.0407022
5346.40	10.89	0.0406665
5350.50	10.82	0.0406869
5354.60	10.75	0.0406513
5358.70	10.68	0.0406553
5362.80	10.61	0.0406146
5366.90	10.54	0.0406173
5371.00	10.48	0.0405677
5375.10	10.41	0.0405443
5379.20	10.34	0.0405375
5383.30	10.27	0.0405057
5387.40	10.20	0.0405127
5391.50	10.13	0.0404864
5395.60	10.06	0.0404752
5399.70	10.00	0.0404904
5403.80	9.93	0.0404420
5407.90	9.86	0.0404497
5412.00	9.79	0.0404038
5416.10	9.72	0.0404234
5420.20	9.65	0.0404562
5424.30	9.59	0.0404435
5428.40	9.52	0.0403965
5432.50	9.45	0.0403628
5436.60	9.38	0.0403703
5440.70	9.31	0.0403728
5444.80	9.25	0.0403335
5448.90	9.18	0.0403501
5453.00	9.11	0.0403176
5457.10	9.04	0.0403245
5461.20	8.97	0.0402726
5465.30	8.90	0.0403095
5469.40	8.83	0.0403149
5473.50	8.77	0.0402202
5477.60	8.70	0.0402368
5481.70	8.63	0.0402150
5485.80	8.56	0.0402130
5489.90	8.49	0.0402149
5494.00	8.42	0.0401303
5498.10	8.36	0.0401302
5502.20	8.29	0.0401510
5506.30	8.22	0.0401013
5510.40	8.15	0.0400941
5514.50	8.08	0.0401190
5518.60	8.02	0.0401462
5522.70	7.95	0.0401523
5526.80	7.88	0.0400727
5530.90	7.81	0.0400714
5535.00	7.74	0.0400817
5539.10	7.67	0.0400429
5543.20	7.60	0.0400231
5547.30	7.54	0.0399987
5551.40	7.47	0.0399868
5555.50	7.40	0.0400120
5559.60	7.33	0.0400359
5563.70	7.26	0.0400566
5567.80	7.19	0.0400092
5571.90	7.13	0.0399380
5576.00	7.06	0.0399259
5580.10	6.99	0.0398731
5584.20	6.92	0.0398071
5588.30	6.85	0.0397813
5592.40	6.78	0.0397381
5596.50	6.72	0.0397879
5600.60	6.65	0.0397911
5604.70	6.58	0.0397722
5608.80	6.51	0.0397057
5612.90	6.44	0.0397835
5617.00	6.37	0.0397606
5621.10	6.31	0.0397371
5625.20	6.24	0.0397096
5629.30	6.17	0.0396735
5633.40	6.10	0.0396782
5637.50	6.03	0.0396384
5641.60	5.97	0.0396746
5645.70	5.90	0.0396227
5649.80	5.83	0.0396503
5653.90	5.76	0.0396588
5658.00	5.69	0.0396441
5662.10	5.62	0.0395897
5666.20	5.55	0.0396300
5670.30	5.49	0.0396377
5674.40	5.42	0.0396580
5678.50	5.35	0.0396382
5682.60	5.28	0.0397009
5686.70	5.21	0.0396391
5690.80	5.14	0.0396178
5694.90	5.08	0.0395394
5699.00	5.01	0.0395358
5703.10	4.94	0.0394623
5707.20	4.87	0.0394794
5711.30	4.80	0.0395017
5715.40	4.73	0.0394835
5719.50	4.67	0.0394950
5723.60	4.60	0.0394407
5727.70	4.53	0.0394415
5731.80	4.46	0.0394229
5735.90	4.39	0.0394043
5740.00	4.32	0.0394378
5744.10	4.26	0.0393821
5748.20	4.19	0.0394136
5752.30	4.12	0.0394488
5756.40	4.05	0.0394380
5760.50	3.98	0.0394353
5764.60	3.91	0.0394076
5768.70	3.85	0.0393883
5772.80	3.78	0.0394031
5776.90	3.71	0.0393365
5781.00	3.64	0.0393245
5785.10	3.57	0.0393387
5789.20	3.50	0.0393380
5793.30	3.44	0.0393746
5797.40	3.37	0.0393808
5801.50	3.30	0.0393641
5805.60	3.23	0.0393748
5809.70	3.16	0.0393746
5813.80	3.09	0.0393559
5817.90	3.03	0.0393433
5822.00	2.96	0.0393469
5826.10	2.89	0.0393274
5830.20	2.82	0.0393116
5834.30	2.75	0.0393078
5838.40	2.68	0.0393343
5842.50	2.62	0.0393438
5846.60	2.55	0.0392986
5850.70	2.48	0.0393179
5854.80	2.41	0.0392750
5858.90	2.34	0.0392235
5863.00	2.27	0.0391883
5867.10	2.21	0.0391891
5871.20	2.14	0.0391966
5875.30	2.07	0.0392677
5879.40	2.00	0.0392121
5883.50	1.93	0.0392216
5887.60	1.86	0.0392376
5891.70	1.80	0.0392197
5895.80	1.73	0.0392199
5899.90	1.66	0.0391989
5904.00	1.59	0.0391932
5908.10	1.52	0.0392063
5912.20	1.45	0.0392011
5916.30	1.38	0.0391879
5920.40	1.32	0.0392367
5924.50	1.25	0.0392570
5928.60	1.18	0.0392516
5932.70	1.11	0.0392634
5936.80	1.04	0.0392118
5940.90	0.97	0.0391717
5945.00	0.91	0.0391908
5949.10	0.84	0.0391987
5953.20	0.77	0.0391639
5957.30	0.70	0.0391314
5961.40	0.63	0.0391055
5965.50	0.57	0.0391749
5969.60	0.50	0.0391587
5973.70	0.43	0.0391400
5977.80	0.36	0.0391610
5981.90	0.29	0.0391477
5986.00	0.22	0.0391462
5990.10	0.15	0.0391801
5994.20	0.09	0.0391372
5998.30	0.02	0.0391197
6000.00	-0.01	0.0391265