File: Differential scanning calorimetry/12OCB Squalane/12OCB SqA wt fraction 095.txt
Filename	12OCBSqA095
Instrument name	DSC2A-00101 (192.168.10.4)
Operator	Yuma
rundate	3/13/2021
Sample name	12OCBSqA095
proceduresegments	Data Off ; Equilibrate 150.00 °C; Isothermal 10.0 min; Equilibrate 100.00 °C; Isothermal 5.0 min; Data On ; Ramp 1.00 °C/min to 0.00 °C; Ramp 5.00 °C/min to 150.00 °C; Data Off ; Isothermal 10.0 min; Modulate Temperature 1.00 °C for 60.0 s; Equilibrate 100.00 °C; Isothermal 10.0 min; Data On ; Ramp 1.00 °C/min to 0.00 °C; Data Off ; Equilibrate 0.00 °C; Modulate Temperature 1.00 °C for 60.0 s; Isothermal 5.0 min; Data On ; Ramp 3.00 °C/min to 100.00 °C; Jump 30.00 °C
[step]
Ramp 1.00 °C/min to 0.00 °C
Time	Temperature	Heat Flow (Normalized)
s	°C	W/g
0.00000	99.85	6.49621e-3
4.00000	99.85	6.61938e-3
8.00000	99.82	2.69017e-3
12.0000	99.78	7.34375e-3
16.0000	99.73	0.0166318
20.0000	99.67	0.0237706
24.0000	99.61	0.0287782
28.0000	99.55	0.0321396
32.0000	99.48	0.0339988
36.0000	99.42	0.0351011
40.0000	99.35	0.0360403
44.0000	99.29	0.0365240
48.0000	99.22	0.0369545
52.0000	99.15	0.0373326
56.0000	99.09	0.0376553
60.0000	99.02	0.0379213
64.0000	98.95	0.0381768
68.0000	98.89	0.0383853
72.0000	98.82	0.0385149
76.0000	98.75	0.0386027
80.0000	98.69	0.0386558
84.0000	98.62	0.0387466
88.0000	98.56	0.0387881
92.0000	98.49	0.0388060
96.0000	98.42	0.0388426
100.000	98.35	0.0388516
104.000	98.29	0.0388759
108.000	98.22	0.0388819
112.000	98.16	0.0388906
116.000	98.09	0.0389211
120.000	98.02	0.0389189
124.000	97.96	0.0389465
128.000	97.89	0.0389510
132.000	97.82	0.0389447
136.000	97.76	0.0389390
140.000	97.69	0.0389115
144.000	97.62	0.0389238
148.000	97.56	0.0389273
152.000	97.49	0.0389142
156.000	97.42	0.0389089
160.000	97.35	0.0389205
164.000	97.29	0.0389249
168.000	97.22	0.0389159
172.000	97.16	0.0389309
176.000	97.09	0.0389369
180.000	97.02	0.0389440
184.000	96.96	0.0389458
188.000	96.89	0.0389609
192.000	96.82	0.0389691
196.000	96.76	0.0389360
200.000	96.69	0.0389447
204.000	96.62	0.0389582
208.000	96.56	0.0389590
212.000	96.49	0.0389584
216.000	96.42	0.0389633
220.000	96.35	0.0389742
224.000	96.29	0.0389581
228.000	96.22	0.0389556
232.000	96.16	0.0389524
236.000	96.09	0.0389447
240.000	96.02	0.0389448
244.000	95.96	0.0389831
248.000	95.89	0.0389921
252.000	95.82	0.0389720
256.000	95.76	0.0389577
260.000	95.69	0.0389624
264.000	95.62	0.0389451
268.000	95.56	0.0389323
272.000	95.49	0.0389297
276.000	95.42	0.0389117
280.000	95.36	0.0389142
284.000	95.29	0.0389100
288.000	95.22	0.0388870
292.000	95.16	0.0389038
296.000	95.09	0.0389171
300.000	95.02	0.0389181
304.000	94.96	0.0389110
308.000	94.89	0.0388996
312.000	94.82	0.0388954
316.000	94.76	0.0388909
320.000	94.69	0.0388973
324.000	94.62	0.0389234
328.000	94.56	0.0389106
332.000	94.49	0.0389107
336.000	94.42	0.0389223
340.000	94.36	0.0389279
344.000	94.29	0.0389290
348.000	94.22	0.0389262
352.000	94.16	0.0389162
356.000	94.09	0.0389211
360.000	94.02	0.0389083
364.000	93.96	0.0388991
368.000	93.89	0.0389246
372.000	93.82	0.0389286
376.000	93.76	0.0389203
380.000	93.69	0.0389408
384.000	93.62	0.0389319
388.000	93.56	0.0389329
392.000	93.49	0.0389476
396.000	93.42	0.0389670
400.000	93.36	0.0389713
404.000	93.29	0.0389674
408.000	93.22	0.0389533
412.000	93.16	0.0389534
416.000	93.09	0.0389607
420.000	93.02	0.0389696
424.000	92.96	0.0389668
428.000	92.89	0.0389798
432.000	92.82	0.0389853
436.000	92.76	0.0389586
440.000	92.69	0.0389514
444.000	92.62	0.0389494
448.000	92.55	0.0389746
452.000	92.49	0.0389866
456.000	92.42	0.0389565
460.000	92.36	0.0389660
464.000	92.29	0.0389762
468.000	92.22	0.0389916
472.000	92.16	0.0389946
476.000	92.09	0.0389774
480.000	92.02	0.0389611
484.000	91.96	0.0389673
488.000	91.89	0.0389664
492.000	91.82	0.0389700
496.000	91.76	0.0389642
500.000	91.69	0.0389876
504.000	91.62	0.0389969
508.000	91.55	0.0389798
512.000	91.49	0.0389692
516.000	91.42	0.0389762
520.000	91.36	0.0389786
524.000	91.29	0.0389808
528.000	91.22	0.0389805
532.000	91.16	0.0389970
536.000	91.09	0.0390132
540.000	91.02	0.0389918
544.000	90.96	0.0389795
548.000	90.89	0.0389899
552.000	90.82	0.0390097
556.000	90.76	0.0390282
560.000	90.69	0.0390244
564.000	90.62	0.0390252
568.000	90.56	0.0390037
572.000	90.49	0.0389802
576.000	90.42	0.0389799
580.000	90.36	0.0389731
584.000	90.29	0.0389906
588.000	90.22	0.0389922
592.000	90.16	0.0390110
596.000	90.09	0.0390260
600.000	90.02	0.0390365
604.000	89.96	0.0390342
608.000	89.89	0.0390563
612.000	89.82	0.0390767
616.000	89.76	0.0390895
620.000	89.69	0.0390955
624.000	89.62	0.0390927
628.000	89.56	0.0390826
632.000	89.49	0.0390896
636.000	89.42	0.0390894
640.000	89.36	0.0390810
644.000	89.29	0.0390952
648.000	89.22	0.0391138
652.000	89.16	0.0391323
656.000	89.09	0.0391560
660.000	89.02	0.0391615
664.000	88.96	0.0391922
668.000	88.89	0.0391890
672.000	88.82	0.0391673
676.000	88.76	0.0391553
680.000	88.69	0.0391619
684.000	88.62	0.0391706
688.000	88.56	0.0391764
692.000	88.49	0.0391731
696.000	88.42	0.0392056
700.000	88.36	0.0392122
704.000	88.29	0.0392271
708.000	88.22	0.0392310
712.000	88.16	0.0392113
716.000	88.09	0.0391986
720.000	88.02	0.0392033
724.000	87.96	0.0392169
728.000	87.89	0.0392282
732.000	87.82	0.0392327
736.000	87.76	0.0392277
740.000	87.69	0.0392198
744.000	87.62	0.0392202
748.000	87.56	0.0392373
752.000	87.49	0.0392540
756.000	87.42	0.0392772
760.000	87.36	0.0392788
764.000	87.29	0.0392884
768.000	87.22	0.0392477
772.000	87.16	0.0392674
776.000	87.09	0.0392985
780.000	87.02	0.0393270
784.000	86.96	0.0393348
788.000	86.89	0.0393502
792.000	86.82	0.0393749
796.000	86.76	0.0393688
800.000	86.69	0.0393713
804.000	86.62	0.0393804
808.000	86.56	0.0393936
812.000	86.49	0.0393885
816.000	86.42	0.0393790
820.000	86.36	0.0393890
824.000	86.29	0.0394131
828.000	86.22	0.0394039
832.000	86.16	0.0393731
836.000	86.09	0.0393550
840.000	86.02	0.0393858
844.000	85.96	0.0393974
848.000	85.89	0.0394171
852.000	85.82	0.0394692
856.000	85.76	0.0394990
860.000	85.69	0.0395190
864.000	85.62	0.0395000
868.000	85.56	0.0394951
872.000	85.49	0.0395166
876.000	85.42	0.0395111
880.000	85.36	0.0395017
884.000	85.29	0.0395198
888.000	85.22	0.0395355
892.000	85.16	0.0395587
896.000	85.09	0.0395817
900.000	85.02	0.0395841
904.000	84.96	0.0395877
908.000	84.89	0.0396357
912.000	84.82	0.0396407
916.000	84.76	0.0396542
920.000	84.69	0.0396772
924.000	84.62	0.0396984
928.000	84.56	0.0397019
932.000	84.49	0.0397249
936.000	84.42	0.0397261
940.000	84.36	0.0397554
944.000	84.29	0.0397658
948.000	84.22	0.0397768
952.000	84.16	0.0397916
956.000	84.09	0.0398168
960.000	84.02	0.0398332
964.000	83.96	0.0398119
968.000	83.89	0.0398276
972.000	83.82	0.0398663
976.000	83.76	0.0398879
980.000	83.69	0.0399091
984.000	83.62	0.0399264
988.000	83.56	0.0399386
992.000	83.49	0.0399424
996.000	83.42	0.0399433
1000.00	83.36	0.0399562
1004.00	83.29	0.0399684
1008.00	83.22	0.0399924
1012.00	83.16	0.0399804
1016.00	83.09	0.0400242
1020.00	83.03	0.0400597
1024.00	82.96	0.0401185
1028.00	82.89	0.0401921
1032.00	82.83	0.0403182
1036.00	82.76	0.0405101
1040.00	82.69	0.0406979
1044.00	82.63	0.0408853
1048.00	82.56	0.0411130
1052.00	82.49	0.0414120
1056.00	82.43	0.0425271
1060.00	82.37	0.0451685
1064.00	82.30	0.0497033
1068.00	82.24	0.0543196
1072.00	82.18	0.0586595
1076.00	82.11	0.0616361
1080.00	82.05	0.0643349
1084.00	81.98	0.0658378
1088.00	81.92	0.0667580
1092.00	81.85	0.0674680
1096.00	81.79	0.0679651
1100.00	81.72	0.0683925
1104.00	81.65	0.0687620
1108.00	81.59	0.0690317
1112.00	81.52	0.0691878
1116.00	81.45	0.0691933
1120.00	81.39	0.0690700
1124.00	81.32	0.0688476
1128.00	81.25	0.0685575
1132.00	81.19	0.0682208
1136.00	81.12	0.0678812
1140.00	81.05	0.0676053
1144.00	80.98	0.0673118
1148.00	80.92	0.0671022
1152.00	80.85	0.0669566
1156.00	80.79	0.0669172
1160.00	80.72	0.0669670
1164.00	80.65	0.0671092
1168.00	80.59	0.0672593
1172.00	80.52	0.0674676
1176.00	80.45	0.0677019
1180.00	80.39	0.0679280
1184.00	80.32	0.0682045
1188.00	80.25	0.0685150
1192.00	80.19	0.0688569
1196.00	80.12	0.0692840
1200.00	80.06	0.0697128
1204.00	79.99	0.0702003
1208.00	79.92	0.0710039
1212.00	79.86	0.0718320
1216.00	79.79	0.0730676
1220.00	79.73	0.0740421
1224.00	79.66	0.0753315
1228.00	79.60	0.0759294
1232.00	79.53	0.0764320
1236.00	79.46	0.0767657
1240.00	79.39	0.0769190
1244.00	79.33	0.0768904
1248.00	79.26	0.0767041
1252.00	79.19	0.0761759
1256.00	79.12	0.0756955
1260.00	79.06	0.0751694
1264.00	78.99	0.0745759
1268.00	78.92	0.0739626
1272.00	78.86	0.0732836
1276.00	78.79	0.0726238
1280.00	78.72	0.0719494
1284.00	78.65	0.0712917
1288.00	78.59	0.0704384
1292.00	78.52	0.0697373
1296.00	78.45	0.0690622
1300.00	78.38	0.0683395
1304.00	78.32	0.0676401
1308.00	78.25	0.0668905
1312.00	78.18	0.0661132
1316.00	78.11	0.0654834
1320.00	78.05	0.0648492
1324.00	77.98	0.0642513
1328.00	77.91	0.0636975
1332.00	77.84	0.0631317
1336.00	77.78	0.0625756
1340.00	77.71	0.0620397
1344.00	77.64	0.0615346
1348.00	77.58	0.0610358
1352.00	77.51	0.0605881
1356.00	77.44	0.0601439
1360.00	77.37	0.0597094
1364.00	77.31	0.0592895
1368.00	77.24	0.0588344
1372.00	77.17	0.0583672
1376.00	77.11	0.0579829
1380.00	77.04	0.0576185
1384.00	76.97	0.0572638
1388.00	76.91	0.0569280
1392.00	76.84	0.0565713
1396.00	76.77	0.0562111
1400.00	76.71	0.0558477
1404.00	76.64	0.0555296
1408.00	76.57	0.0551327
1412.00	76.50	0.0548128
1416.00	76.44	0.0544868
1420.00	76.37	0.0541626
1424.00	76.30	0.0538732
1428.00	76.24	0.0535853
1432.00	76.17	0.0533161
1436.00	76.10	0.0530598
1440.00	76.04	0.0528240
1444.00	75.97	0.0525693
1448.00	75.90	0.0523420
1452.00	75.83	0.0521233
1456.00	75.77	0.0518945
1460.00	75.70	0.0516652
1464.00	75.63	0.0514760
1468.00	75.57	0.0512441
1472.00	75.50	0.0510621
1476.00	75.43	0.0508594
1480.00	75.37	0.0506652
1484.00	75.30	0.0504753
1488.00	75.23	0.0502590
1492.00	75.17	0.0500636
1496.00	75.10	0.0498743
1500.00	75.03	0.0496906
1504.00	74.97	0.0494903
1508.00	74.90	0.0492963
1512.00	74.83	0.0491216
1516.00	74.77	0.0489538
1520.00	74.70	0.0487719
1524.00	74.63	0.0486256
1528.00	74.57	0.0484548
1532.00	74.50	0.0482887
1536.00	74.43	0.0481143
1540.00	74.36	0.0479179
1544.00	74.30	0.0477563
1548.00	74.23	0.0475957
1552.00	74.17	0.0474445
1556.00	74.10	0.0472946
1560.00	74.03	0.0471576
1564.00	73.96	0.0470329
1568.00	73.90	0.0469045
1572.00	73.83	0.0467521
1576.00	73.76	0.0466055
1580.00	73.70	0.0464669
1584.00	73.63	0.0463274
1588.00	73.56	0.0461951
1592.00	73.50	0.0460535
1596.00	73.43	0.0459230
1600.00	73.36	0.0458091
1604.00	73.30	0.0456722
1608.00	73.23	0.0455264
1612.00	73.16	0.0454037
1616.00	73.10	0.0452797
1620.00	73.03	0.0451913
1624.00	72.96	0.0450769
1628.00	72.90	0.0449604
1632.00	72.83	0.0448320
1636.00	72.76	0.0447031
1640.00	72.69	0.0445889
1644.00	72.63	0.0445060
1648.00	72.56	0.0444109
1652.00	72.49	0.0442887
1656.00	72.43	0.0441619
1660.00	72.36	0.0440605
1664.00	72.30	0.0439490
1668.00	72.23	0.0438411
1672.00	72.16	0.0437432
1676.00	72.09	0.0436611
1680.00	72.03	0.0435547
1684.00	71.96	0.0434568
1688.00	71.89	0.0433668
1692.00	71.83	0.0432888
1696.00	71.76	0.0431957
1700.00	71.69	0.0431086
1704.00	71.63	0.0430055
1708.00	71.56	0.0429210
1712.00	71.49	0.0428252
1716.00	71.43	0.0427605
1720.00	71.36	0.0426529
1724.00	71.29	0.0425806
1728.00	71.23	0.0425069
1732.00	71.16	0.0424252
1736.00	71.09	0.0423617
1740.00	71.03	0.0422939
1744.00	70.96	0.0422026
1748.00	70.89	0.0421533
1752.00	70.83	0.0420879
1756.00	70.76	0.0419772
1760.00	70.69	0.0419017
1764.00	70.63	0.0418429
1768.00	70.56	0.0417593
1772.00	70.49	0.0416643
1776.00	70.43	0.0415906
1780.00	70.36	0.0415407
1784.00	70.29	0.0414944
1788.00	70.23	0.0414345
1792.00	70.16	0.0413808
1796.00	70.09	0.0413084
1800.00	70.02	0.0412585
1804.00	69.96	0.0411829
1808.00	69.89	0.0410759
1812.00	69.83	0.0409791
1816.00	69.76	0.0408992
1820.00	69.69	0.0408482
1824.00	69.63	0.0408205
1828.00	69.56	0.0407677
1832.00	69.49	0.0407042
1836.00	69.42	0.0406404
1840.00	69.36	0.0406041
1844.00	69.29	0.0405598
1848.00	69.22	0.0405073
1852.00	69.16	0.0404476
1856.00	69.09	0.0403953
1860.00	69.02	0.0403355
1864.00	68.96	0.0402830
1868.00	68.89	0.0402361
1872.00	68.82	0.0402007
1876.00	68.76	0.0401701
1880.00	68.69	0.0401056
1884.00	68.62	0.0400420
1888.00	68.56	0.0399605
1892.00	68.49	0.0399061
1896.00	68.42	0.0398593
1900.00	68.36	0.0398237
1904.00	68.29	0.0397743
1908.00	68.22	0.0397561
1912.00	68.16	0.0396903
1916.00	68.09	0.0396378
1920.00	68.03	0.0395964
1924.00	67.96	0.0395434
1928.00	67.89	0.0395117
1932.00	67.82	0.0395107
1936.00	67.76	0.0394669
1940.00	67.69	0.0394076
1944.00	67.62	0.0393540
1948.00	67.56	0.0393352
1952.00	67.49	0.0393164
1956.00	67.42	0.0392846
1960.00	67.36	0.0392512
1964.00	67.29	0.0392265
1968.00	67.22	0.0391727
1972.00	67.16	0.0391047
1976.00	67.09	0.0390609
1980.00	67.02	0.0390360
1984.00	66.96	0.0390200
1988.00	66.89	0.0389992
1992.00	66.82	0.0389634
1996.00	66.76	0.0389140
2000.00	66.69	0.0388779
2004.00	66.62	0.0388321
2008.00	66.56	0.0388119
2012.00	66.49	0.0387928
2016.00	66.42	0.0387531
2020.00	66.36	0.0387400
2024.00	66.29	0.0387253
2028.00	66.22	0.0387139
2032.00	66.16	0.0387008
2036.00	66.09	0.0386494
2040.00	66.02	0.0386228
2044.00	65.96	0.0386253
2048.00	65.89	0.0385987
2052.00	65.82	0.0385518
2056.00	65.76	0.0385329
2060.00	65.69	0.0385137
2064.00	65.62	0.0384948
2068.00	65.56	0.0384746
2072.00	65.49	0.0384553
2076.00	65.42	0.0384314
2080.00	65.36	0.0384065
2084.00	65.29	0.0383911
2088.00	65.22	0.0383697
2092.00	65.16	0.0383355
2096.00	65.09	0.0383085
2100.00	65.02	0.0382719
2104.00	64.96	0.0382474
2108.00	64.89	0.0382308
2112.00	64.82	0.0382057
2116.00	64.75	0.0381776
2120.00	64.69	0.0381539
2124.00	64.62	0.0381499
2128.00	64.56	0.0381284
2132.00	64.49	0.0381237
2136.00	64.42	0.0381061
2140.00	64.36	0.0380928
2144.00	64.29	0.0381138
2148.00	64.22	0.0381015
2152.00	64.16	0.0380736
2156.00	64.09	0.0380429
2160.00	64.02	0.0380086
2164.00	63.96	0.0379999
2168.00	63.89	0.0379518
2172.00	63.82	0.0379371
2176.00	63.76	0.0379093
2180.00	63.69	0.0378903
2184.00	63.62	0.0378873
2188.00	63.56	0.0378864
2192.00	63.49	0.0379000
2196.00	63.42	0.0379303
2200.00	63.36	0.0379272
2204.00	63.29	0.0379073
2208.00	63.22	0.0379017
2212.00	63.15	0.0379008
2216.00	63.09	0.0378828
2220.00	63.02	0.0378459
2224.00	62.96	0.0378253
2228.00	62.89	0.0378077
2232.00	62.82	0.0377894
2236.00	62.76	0.0377416
2240.00	62.69	0.0377441
2244.00	62.62	0.0377425
2248.00	62.56	0.0377394
2252.00	62.49	0.0377334
2256.00	62.42	0.0377097
2260.00	62.36	0.0377078
2264.00	62.29	0.0377008
2268.00	62.22	0.0377058
2272.00	62.16	0.0376934
2276.00	62.09	0.0376826
2280.00	62.02	0.0376848
2284.00	61.95	0.0376869
2288.00	61.89	0.0377010
2292.00	61.82	0.0376874
2296.00	61.76	0.0376440
2300.00	61.69	0.0376075
2304.00	61.62	0.0376053
2308.00	61.56	0.0376046
2312.00	61.49	0.0375877
2316.00	61.42	0.0375655
2320.00	61.35	0.0375681
2324.00	61.29	0.0375654
2328.00	61.22	0.0375405
2332.00	61.16	0.0375246
2336.00	61.09	0.0375298
2340.00	61.02	0.0375345
2344.00	60.96	0.0375378
2348.00	60.89	0.0375365
2352.00	60.82	0.0375222
2356.00	60.75	0.0375313
2360.00	60.69	0.0375357
2364.00	60.62	0.0375176
2368.00	60.56	0.0374995
2372.00	60.49	0.0374909
2376.00	60.42	0.0374787
2380.00	60.36	0.0374691
2384.00	60.29	0.0374599
2388.00	60.22	0.0374568
2392.00	60.16	0.0374424
2396.00	60.09	0.0374142
2400.00	60.02	0.0373953
2404.00	59.95	0.0373925
2408.00	59.89	0.0373715
2412.00	59.82	0.0373814
2416.00	59.75	0.0373622
2420.00	59.69	0.0373720
2424.00	59.62	0.0373778
2428.00	59.56	0.0373582
2432.00	59.49	0.0373594
2436.00	59.42	0.0373584
2440.00	59.35	0.0373409
2444.00	59.29	0.0373270
2448.00	59.22	0.0373171
2452.00	59.15	0.0373032
2456.00	59.09	0.0372909
2460.00	59.02	0.0372612
2464.00	58.96	0.0372559
2468.00	58.89	0.0372628
2472.00	58.82	0.0372519
2476.00	58.76	0.0372629
2480.00	58.69	0.0372329
2484.00	58.62	0.0372286
2488.00	58.56	0.0372177
2492.00	58.49	0.0372325
2496.00	58.42	0.0372242
2500.00	58.36	0.0372091
2504.00	58.29	0.0372324
2508.00	58.22	0.0372203
2512.00	58.15	0.0372335
2516.00	58.09	0.0372017
2520.00	58.02	0.0371991
2524.00	57.96	0.0371848
2528.00	57.89	0.0371694
2532.00	57.82	0.0371641
2536.00	57.75	0.0371713
2540.00	57.69	0.0371586
2544.00	57.62	0.0371527
2548.00	57.55	0.0371354
2552.00	57.49	0.0370980
2556.00	57.42	0.0370669
2560.00	57.35	0.0370833
2564.00	57.29	0.0370970
2568.00	57.22	0.0370782
2572.00	57.16	0.0371148
2576.00	57.09	0.0371119
2580.00	57.02	0.0371131
2584.00	56.95	0.0371013
2588.00	56.89	0.0371066
2592.00	56.82	0.0371042
2596.00	56.75	0.0370874
2600.00	56.69	0.0370984
2604.00	56.62	0.0370707
2608.00	56.55	0.0370540
2612.00	56.49	0.0370365
2616.00	56.42	0.0370272
2620.00	56.35	0.0370259
2624.00	56.29	0.0370065
2628.00	56.22	0.0370087
2632.00	56.15	0.0369938
2636.00	56.09	0.0370121
2640.00	56.02	0.0369806
2644.00	55.96	0.0369411
2648.00	55.89	0.0369259
2652.00	55.82	0.0369171
2656.00	55.75	0.0369185
2660.00	55.69	0.0369162
2664.00	55.62	0.0369280
2668.00	55.56	0.0369033
2672.00	55.49	0.0369082
2676.00	55.42	0.0368839
2680.00	55.36	0.0368962
2684.00	55.29	0.0368954
2688.00	55.22	0.0369170
2692.00	55.16	0.0369157
2696.00	55.09	0.0368822
2700.00	55.02	0.0368755
2704.00	54.95	0.0368869
2708.00	54.89	0.0368881
2712.00	54.82	0.0368982
2716.00	54.75	0.0368885
2720.00	54.69	0.0368809
2724.00	54.62	0.0368686
2728.00	54.55	0.0368767
2732.00	54.49	0.0368608
2736.00	54.42	0.0368446
2740.00	54.35	0.0368457
2744.00	54.29	0.0368161
2748.00	54.22	0.0367898
2752.00	54.15	0.0367587
2756.00	54.09	0.0367600
2760.00	54.02	0.0367454
2764.00	53.96	0.0367420
2768.00	53.89	0.0367444
2772.00	53.82	0.0367414
2776.00	53.75	0.0367390
2780.00	53.69	0.0367420
2784.00	53.62	0.0367419
2788.00	53.55	0.0367383
2792.00	53.49	0.0367500
2796.00	53.42	0.0367701
2800.00	53.35	0.0367635
2804.00	53.29	0.0367525
2808.00	53.22	0.0367371
2812.00	53.15	0.0367224
2816.00	53.09	0.0367012
2820.00	53.02	0.0366503
2824.00	52.95	0.0366436
2828.00	52.89	0.0366529
2832.00	52.82	0.0366654
2836.00	52.75	0.0366561
2840.00	52.69	0.0366462
2844.00	52.62	0.0366255
2848.00	52.55	0.0366347
2852.00	52.49	0.0366440
2856.00	52.42	0.0366329
2860.00	52.35	0.0366570
2864.00	52.29	0.0366473
2868.00	52.22	0.0366615
2872.00	52.15	0.0366283
2876.00	52.09	0.0366113
2880.00	52.02	0.0365903
2884.00	51.95	0.0365909
2888.00	51.89	0.0365767
2892.00	51.82	0.0365797
2896.00	51.76	0.0365482
2900.00	51.69	0.0365532
2904.00	51.62	0.0365530
2908.00	51.55	0.0365446
2912.00	51.49	0.0365499
2916.00	51.42	0.0365587
2920.00	51.35	0.0365410
2924.00	51.29	0.0365281
2928.00	51.22	0.0365068
2932.00	51.15	0.0365158
2936.00	51.09	0.0365358
2940.00	51.02	0.0365086
2944.00	50.95	0.0364997
2948.00	50.89	0.0364780
2952.00	50.82	0.0364804
2956.00	50.75	0.0364530
2960.00	50.69	0.0364174
2964.00	50.62	0.0364225
2968.00	50.55	0.0364162
2972.00	50.49	0.0364266
2976.00	50.42	0.0364328
2980.00	50.35	0.0364605
2984.00	50.29	0.0364582
2988.00	50.22	0.0364631
2992.00	50.15	0.0364600
2996.00	50.09	0.0364307
3000.00	50.02	0.0364073
3004.00	49.95	0.0363931
3008.00	49.89	0.0363850
3012.00	49.82	0.0364074
3016.00	49.75	0.0363856
3020.00	49.69	0.0363883
3024.00	49.62	0.0363856
3028.00	49.55	0.0363542
3032.00	49.49	0.0363646
3036.00	49.42	0.0363412
3040.00	49.35	0.0363584
3044.00	49.29	0.0363527
3048.00	49.22	0.0363490
3052.00	49.15	0.0363416
3056.00	49.09	0.0363398
3060.00	49.02	0.0363497
3064.00	48.95	0.0363505
3068.00	48.89	0.0363520
3072.00	48.82	0.0363356
3076.00	48.75	0.0363365
3080.00	48.69	0.0363302
3084.00	48.62	0.0363303
3088.00	48.55	0.0363077
3092.00	48.49	0.0362991
3096.00	48.42	0.0362879
3100.00	48.35	0.0362537
3104.00	48.29	0.0362419
3108.00	48.22	0.0362451
3112.00	48.15	0.0362502
3116.00	48.09	0.0362465
3120.00	48.02	0.0362385
3124.00	47.95	0.0362439
3128.00	47.89	0.0362133
3132.00	47.82	0.0362184
3136.00	47.75	0.0362292
3140.00	47.69	0.0362189
3144.00	47.62	0.0362508
3148.00	47.55	0.0362580
3152.00	47.49	0.0362769
3156.00	47.42	0.0363186
3160.00	47.35	0.0363224
3164.00	47.29	0.0363149
3168.00	47.22	0.0362964
3172.00	47.15	0.0362681
3176.00	47.09	0.0362325
3180.00	47.02	0.0361848
3184.00	46.95	0.0361769
3188.00	46.89	0.0361446
3192.00	46.82	0.0361188
3196.00	46.75	0.0360825
3200.00	46.69	0.0360887
3204.00	46.62	0.0360716
3208.00	46.55	0.0360666
3212.00	46.49	0.0360840
3216.00	46.42	0.0360527
3220.00	46.35	0.0360484
3224.00	46.29	0.0360446
3228.00	46.22	0.0360552
3232.00	46.15	0.0360256
3236.00	46.09	0.0360466
3240.00	46.02	0.0360729
3244.00	45.95	0.0360923
3248.00	45.89	0.0361003
3252.00	45.82	0.0360883
3256.00	45.75	0.0360972
3260.00	45.69	0.0360940
3264.00	45.62	0.0360654
3268.00	45.55	0.0360559
3272.00	45.49	0.0360380
3276.00	45.42	0.0360233
3280.00	45.35	0.0359901
3284.00	45.29	0.0360051
3288.00	45.22	0.0360114
3292.00	45.15	0.0359780
3296.00	45.09	0.0360008
3300.00	45.02	0.0359921
3304.00	44.95	0.0278900
3308.00	45.20	-0.0927713
3312.00	46.06	0.672359
3316.00	46.72	1.69693
3320.00	46.91	2.06314
3324.00	46.99	2.21636
3328.00	47.14	2.35324
3332.00	47.50	2.66402
3336.00	47.99	3.23619
3340.00	48.10	3.84168
3344.00	46.72	2.75159
3348.00	45.67	1.69496
3352.00	45.02	1.04515
3356.00	44.60	0.643226
3360.00	44.33	0.400034
3364.00	44.14	0.252729
3368.00	43.99	0.164819
3372.00	43.88	0.112239
3376.00	43.79	0.0803243
3380.00	43.71	0.0610561
3384.00	43.63	0.0498178
3388.00	43.56	0.0430984
3392.00	43.49	0.0391959
3396.00	43.42	0.0372296
3400.00	43.35	0.0358829
3404.00	43.28	0.0348198
3408.00	43.22	0.0343728
3412.00	43.15	0.0339508
3416.00	43.08	0.0335572
3420.00	43.02	0.0331883
3424.00	42.95	0.0328611
3428.00	42.88	0.0325744
3432.00	42.82	0.0323172
3436.00	42.75	0.0321140
3440.00	42.68	0.0319392
3444.00	42.62	0.0318086
3448.00	42.55	0.0317045
3452.00	42.48	0.0316228
3456.00	42.41	0.0315217
3460.00	42.35	0.0314439
3464.00	42.28	0.0313569
3468.00	42.21	0.0312798
3472.00	42.15	0.0312297
3476.00	42.08	0.0311826
3480.00	42.01	0.0311378
3484.00	41.95	0.0311005
3488.00	41.88	0.0310401
3492.00	41.82	0.0309736
3496.00	41.75	0.0309234
3500.00	41.68	0.0308968
3504.00	41.61	0.0308580
3508.00	41.55	0.0308435
3512.00	41.48	0.0308059
3516.00	41.41	0.0307706
3520.00	41.35	0.0307363
3524.00	41.28	0.0307129
3528.00	41.21	0.0307154
3532.00	41.15	0.0306576
3536.00	41.08	0.0309608
3540.00	41.02	0.0313394
3544.00	40.95	0.0315571
3548.00	40.88	0.0317066
3552.00	40.82	0.0317453
3556.00	40.75	0.0317634
3560.00	40.68	0.0317752
3564.00	40.62	0.0316986
3568.00	40.55	0.0315394
3572.00	40.48	0.0313678
3576.00	40.41	0.0312208
3580.00	40.35	0.0310800
3584.00	40.28	0.0309310
3588.00	40.21	0.0308030
3592.00	40.15	0.0306743
3596.00	40.08	0.0305767
3600.00	40.01	0.0304909
3604.00	39.95	0.0304224
3608.00	39.88	0.0303759
3612.00	39.81	0.0303114
3616.00	39.75	0.0302630
3620.00	39.68	0.0302329
3624.00	39.61	0.0302203
3628.00	39.55	0.0301908
3632.00	39.48	0.0301633
3636.00	39.41	0.0301097
3640.00	39.35	0.0300784
3644.00	39.28	0.0300548
3648.00	39.21	0.0300592
3652.00	39.15	0.0300362
3656.00	39.08	0.0300185
3660.00	39.01	0.0299886
3664.00	38.95	0.0299768
3668.00	38.88	0.0299729
3672.00	38.81	0.0299287
3676.00	38.75	0.0300057
3680.00	38.68	0.0300130
3684.00	38.61	0.0300026
3688.00	38.55	0.0299679
3692.00	38.48	0.0299531
3696.00	38.41	0.0299205
3700.00	38.35	0.0298866
3704.00	38.28	0.0298544
3708.00	38.21	0.0298255
3712.00	38.15	0.0297974
3716.00	38.08	0.0297661
3720.00	38.01	0.0297540
3724.00	37.95	0.0297244
3728.00	37.88	0.0296921
3732.00	37.81	0.0296908
3736.00	37.75	0.0296919
3740.00	37.68	0.0296654
3744.00	37.61	0.0296540
3748.00	37.55	0.0296506
3752.00	37.48	0.0296496
3756.00	37.41	0.0296502
3760.00	37.35	0.0296461
3764.00	37.28	0.0296580
3768.00	37.21	0.0296324
3772.00	37.15	0.0295945
3776.00	37.08	0.0295721
3780.00	37.01	0.0295597
3784.00	36.95	0.0295724
3788.00	36.88	0.0295794
3792.00	36.81	0.0295552
3796.00	36.75	0.0295514
3800.00	36.68	0.0295283
3804.00	36.61	0.0295042
3808.00	36.55	0.0294950
3812.00	36.48	0.0294824
3816.00	36.41	0.0294699
3820.00	36.35	0.0294741
3824.00	36.28	0.0294313
3828.00	36.21	0.0293995
3832.00	36.15	0.0293844
3836.00	36.08	0.0293664
3840.00	36.01	0.0293292
3844.00	35.95	0.0293103
3848.00	35.88	0.0293022
3852.00	35.81	0.0293030
3856.00	35.75	0.0292950
3860.00	35.68	0.0292974
3864.00	35.61	0.0292964
3868.00	35.55	0.0292934
3872.00	35.48	0.0292766
3876.00	35.41	0.0292461
3880.00	35.35	0.0292531
3884.00	35.28	0.0292216
3888.00	35.21	0.0291963
3892.00	35.15	0.0291799
3896.00	35.08	0.0291723
3900.00	35.01	0.0291511
3904.00	34.95	0.0291327
3908.00	34.88	0.0291289
3912.00	34.81	0.0291288
3916.00	34.75	0.0291338
3920.00	34.68	0.0291371
3924.00	34.61	0.0291255
3928.00	34.55	0.0291290
3932.00	34.48	0.0290915
3936.00	34.41	0.0290754
3940.00	34.35	0.0290725
3944.00	34.28	0.0290466
3948.00	34.21	0.0290387
3952.00	34.15	0.0290048
3956.00	34.08	0.0289956
3960.00	34.01	0.0289881
3964.00	33.95	0.0289760
3968.00	33.88	0.0289778
3972.00	33.81	0.0289675
3976.00	33.75	0.0289500
3980.00	33.68	0.0289769
3984.00	33.61	0.0289794
3988.00	33.55	0.0289785
3992.00	33.48	0.0289843
3996.00	33.41	0.0289543
4000.00	33.35	0.0289332
4004.00	33.28	0.0289201
4008.00	33.21	0.0288858
4012.00	33.15	0.0288640
4016.00	33.08	0.0288539
4020.00	33.01	0.0288559
4024.00	32.95	0.0288422
4028.00	32.88	0.0288436
4032.00	32.81	0.0288093
4036.00	32.75	0.0287850
4040.00	32.68	0.0287626
4044.00	32.61	0.0287404
4048.00	32.54	0.0287160
4052.00	32.48	0.0287220
4056.00	32.41	0.0287180
4060.00	32.34	0.0287149
4064.00	32.28	0.0287014
4068.00	32.21	0.0286857
4072.00	32.15	0.0286663
4076.00	32.08	0.0286419
4080.00	32.01	0.0286295
4084.00	31.95	0.0286027
4088.00	31.88	0.0285872
4092.00	31.81	0.0285858
4096.00	31.74	0.0285885
4100.00	31.68	0.0285622
4104.00	31.61	0.0285435
4108.00	31.54	0.0285392
4112.00	31.48	0.0285475
4116.00	31.41	0.0285336
4120.00	31.35	0.0285109
4124.00	31.28	0.0284683
4128.00	31.21	0.0284543
4132.00	31.15	0.0284519
4136.00	31.08	0.0284668
4140.00	31.01	0.0284888
4144.00	30.95	0.0284955
4148.00	30.88	0.0284649
4152.00	30.81	0.0284661
4156.00	30.74	0.0284624
4160.00	30.68	0.0284730
4164.00	30.61	0.0284296
4168.00	30.54	0.0284226
4172.00	30.48	0.0284299
4176.00	30.41	0.0284085
4180.00	30.35	0.0284006
4184.00	30.28	0.0283734
4188.00	30.21	0.0283724
4192.00	30.14	0.0283585
4196.00	30.08	0.0283271
4200.00	30.01	0.0282957
4204.00	29.94	0.0283179
4208.00	29.88	0.0283364
4212.00	29.81	0.0283411
4216.00	29.74	0.0283110
4220.00	29.68	0.0282813
4224.00	29.61	0.0282933
4228.00	29.54	0.0282810
4232.00	29.48	0.0282612
4236.00	29.41	0.0282715
4240.00	29.35	0.0282496
4244.00	29.28	0.0282457
4248.00	29.21	0.0282332
4252.00	29.14	0.0282255
4256.00	29.08	0.0282150
4260.00	29.01	0.0282011
4264.00	28.94	0.0281797
4268.00	28.88	0.0281611
4272.00	28.81	0.0281412
4276.00	28.74	0.0281083
4280.00	28.68	0.0281028
4284.00	28.61	0.0281242
4288.00	28.54	0.0280946
4292.00	28.48	0.0280818
4296.00	28.41	0.0281040
4300.00	28.34	0.0280973
4304.00	28.28	0.0280986
4308.00	28.21	0.0280711
4312.00	28.14	0.0280619
4316.00	28.08	0.0280584
4320.00	28.01	0.0280394
4324.00	27.94	0.0280357
4328.00	27.88	0.0280161
4332.00	27.81	0.0280201
4336.00	27.74	0.0280119
4340.00	27.68	0.0280036
4344.00	27.61	0.0279939
4348.00	27.54	0.0279805
4352.00	27.48	0.0279494
4356.00	27.41	0.0279226
4360.00	27.34	0.0279181
4364.00	27.28	0.0279176
4368.00	27.21	0.0279216
4372.00	27.14	0.0279173
4376.00	27.08	0.0279027
4380.00	27.01	0.0278904
4384.00	26.94	0.0278862
4388.00	26.88	0.0278459
4392.00	26.81	0.0278378
4396.00	26.74	0.0278080
4400.00	26.68	0.0278306
4404.00	26.61	0.0278141
4408.00	26.55	0.0277977
4412.00	26.48	0.0277929
4416.00	26.41	0.0277786
4420.00	26.34	0.0277754
4424.00	26.28	0.0277482
4428.00	26.21	0.0277247
4432.00	26.14	0.0277082
4436.00	26.08	0.0277002
4440.00	26.01	0.0277157
4444.00	25.94	0.0277173
4448.00	25.88	0.0276987
4452.00	25.81	0.0277007
4456.00	25.74	0.0276821
4460.00	25.68	0.0276877
4464.00	25.61	0.0276872
4468.00	25.54	0.0276737
4472.00	25.48	0.0276650
4476.00	25.41	0.0276628
4480.00	25.34	0.0276710
4484.00	25.28	0.0276699
4488.00	25.21	0.0276553
4492.00	25.14	0.0276582
4496.00	25.08	0.0276354
4500.00	25.01	0.0276450
4504.00	24.94	0.0276073
4508.00	24.87	0.0275883
4512.00	24.81	0.0275837
4516.00	24.74	0.0275519
4520.00	24.68	0.0275073
4524.00	24.61	0.0274867
4528.00	24.54	0.0274806
4532.00	24.48	0.0274629
4536.00	24.41	0.0274272
4540.00	24.34	0.0274026
4544.00	24.28	0.0273979
4548.00	24.21	0.0273920
4552.00	24.14	0.0274030
4556.00	24.08	0.0273977
4560.00	24.01	0.0273990
4564.00	23.94	0.0274101
4568.00	23.88	0.0273927
4572.00	23.81	0.0273813
4576.00	23.74	0.0273750
4580.00	23.68	0.0273580
4584.00	23.61	0.0273665
4588.00	23.54	0.0273690
4592.00	23.48	0.0273637
4596.00	23.41	0.0273627
4600.00	23.34	0.0273361
4604.00	23.28	0.0273048
4608.00	23.21	0.0273118
4612.00	23.14	0.0273058
4616.00	23.08	0.0272606
4620.00	23.01	0.0272728
4624.00	22.94	0.0272824
4628.00	22.88	0.0272661
4632.00	22.81	0.0272470
4636.00	22.74	0.0272463
4640.00	22.68	0.0272229
4644.00	22.61	0.0272185
4648.00	22.54	0.0272176
4652.00	22.48	0.0272357
4656.00	22.41	0.0272192
4660.00	22.34	0.0271755
4664.00	22.28	0.0271624
4668.00	22.21	0.0271451
4672.00	22.14	0.0271430
4676.00	22.08	0.0271266
4680.00	22.01	0.0271244
4684.00	21.94	0.0271167
4688.00	21.88	0.0271339
4692.00	21.81	0.0271228
4696.00	21.74	0.0271115
4700.00	21.68	0.0271046
4704.00	21.61	0.0271145
4708.00	21.54	0.0271093
4712.00	21.48	0.0271044
4716.00	21.41	0.0270908
4720.00	21.34	0.0270934
4724.00	21.28	0.0270648
4728.00	21.21	0.0270327
4732.00	21.14	0.0270276
4736.00	21.08	0.0270211
4740.00	21.01	0.0270274
4744.00	20.94	0.0270174
4748.00	20.88	0.0270029
4752.00	20.81	0.0270078
4756.00	20.74	0.0269814
4760.00	20.68	0.0269507
4764.00	20.61	0.0269328
4768.00	20.54	0.0269339
4772.00	20.48	0.0269195
4776.00	20.41	0.0269280
4780.00	20.34	0.0269154
4784.00	20.28	0.0269169
4788.00	20.21	0.0268774
4792.00	20.14	0.0269030
4796.00	20.07	0.0268748
4800.00	20.01	0.0268427
4804.00	19.94	0.0268387
4808.00	19.88	0.0268101
4812.00	19.81	0.0267959
4816.00	19.74	0.0267458
4820.00	19.68	0.0267295
4824.00	19.61	0.0267236
4828.00	19.54	0.0267468
4832.00	19.48	0.0267313
4836.00	19.41	0.0267292
4840.00	19.34	0.0267305
4844.00	19.28	0.0267298
4848.00	19.21	0.0267300
4852.00	19.14	0.0267050
4856.00	19.07	0.0266986
4860.00	19.01	0.0266906
4864.00	18.94	0.0266856
4868.00	18.88	0.0266721
4872.00	18.81	0.0266699
4876.00	18.74	0.0266798
4880.00	18.67	0.0266744
4884.00	18.61	0.0266258
4888.00	18.54	0.0266496
4892.00	18.48	0.0266064
4896.00	18.41	0.0266006
4900.00	18.34	0.0266053
4904.00	18.28	0.0266027
4908.00	18.21	0.0266074
4912.00	18.14	0.0265950
4916.00	18.08	0.0265967
4920.00	18.01	0.0265810
4924.00	17.94	0.0265848
4928.00	17.87	0.0265798
4932.00	17.81	0.0265622
4936.00	17.74	0.0265290
4940.00	17.67	0.0265184
4944.00	17.61	0.0265062
4948.00	17.54	0.0264928
4952.00	17.47	0.0264887
4956.00	17.41	0.0264838
4960.00	17.34	0.0264787
4964.00	17.28	0.0264675
4968.00	17.21	0.0264328
4972.00	17.14	0.0264243
4976.00	17.08	0.0264138
4980.00	17.01	0.0264188
4984.00	16.94	0.0264014
4988.00	16.88	0.0263961
4992.00	16.81	0.0263980
4996.00	16.74	0.0263902
5000.00	16.68	0.0263903
5004.00	16.61	0.0263565
5008.00	16.54	0.0263342
5012.00	16.48	0.0263274
5016.00	16.41	0.0263355
5020.00	16.34	0.0263235
5024.00	16.27	0.0263236
5028.00	16.21	0.0263132
5032.00	16.14	0.0263009
5036.00	16.07	0.0262976
5040.00	16.01	0.0263022
5044.00	15.94	0.0263121
5048.00	15.88	0.0262855
5052.00	15.81	0.0262656
5056.00	15.74	0.0262574
5060.00	15.68	0.0262567
5064.00	15.61	0.0262555
5068.00	15.54	0.0262674
5072.00	15.47	0.0262646
5076.00	15.41	0.0262374
5080.00	15.34	0.0262219
5084.00	15.27	0.0262144
5088.00	15.21	0.0261843
5092.00	15.14	0.0261355
5096.00	15.07	0.0261314
5100.00	15.01	0.0261340
5104.00	14.94	0.0261148
5108.00	14.87	0.0261127
5112.00	14.81	0.0261091
5116.00	14.74	0.0261044
5120.00	14.67	0.0260814
5124.00	14.61	0.0260585
5128.00	14.54	0.0260330
5132.00	14.48	0.0260372
5136.00	14.41	0.0259920
5140.00	14.34	0.0259916
5144.00	14.27	0.0260090
5148.00	14.21	0.0260266
5152.00	14.14	0.0260477
5156.00	14.07	0.0260472
5160.00	14.01	0.0260386
5164.00	13.94	0.0260051
5168.00	13.87	0.0260125
5172.00	13.81	0.0260068
5176.00	13.74	0.0259619
5180.00	13.67	0.0259329
5184.00	13.61	0.0259162
5188.00	13.54	0.0259063
5192.00	13.47	0.0259123
5196.00	13.41	0.0259077
5200.00	13.34	0.0258817
5204.00	13.27	0.0258885
5208.00	13.21	0.0258772
5212.00	13.14	0.0258756
5216.00	13.07	0.0258737
5220.00	13.01	0.0258408
5224.00	12.94	0.0258279
5228.00	12.87	0.0258214
5232.00	12.81	0.0258247
5236.00	12.74	0.0258060
5240.00	12.67	0.0257982
5244.00	12.61	0.0257794
5248.00	12.54	0.0257503
5252.00	12.48	0.0257167
5256.00	12.41	0.0257367
5260.00	12.34	0.0257441
5264.00	12.27	0.0257352
5268.00	12.21	0.0257323
5272.00	12.14	0.0257367
5276.00	12.07	0.0257358
5280.00	12.01	0.0257339
5284.00	11.94	0.0257309
5288.00	11.87	0.0257004
5292.00	11.81	0.0257006
5296.00	11.74	0.0257018
5300.00	11.67	0.0256796
5304.00	11.61	0.0256957
5308.00	11.54	0.0256826
5312.00	11.47	0.0256848
5316.00	11.41	0.0256948
5320.00	11.34	0.0256513
5324.00	11.27	0.0256328
5328.00	11.21	0.0256149
5332.00	11.14	0.0256218
5336.00	11.07	0.0256135
5340.00	11.01	0.0255954
5344.00	10.94	0.0255803
5348.00	10.87	0.0255800
5352.00	10.81	0.0255594
5356.00	10.74	0.0255371
5360.00	10.67	0.0255381
5364.00	10.61	0.0255256
5368.00	10.54	0.0255210
5372.00	10.47	0.0255057
5376.00	10.41	0.0254964
5380.00	10.34	0.0254908
5384.00	10.27	0.0254830
5388.00	10.21	0.0254528
5392.00	10.14	0.0254524
5396.00	10.07	0.0254450
5400.00	10.01	0.0254545
5404.00	9.94	0.0254464
5408.00	9.87	0.0254574
5412.00	9.81	0.0254411
5416.00	9.74	0.0254407
5420.00	9.67	0.0254358
5424.00	9.61	0.0254312
5428.00	9.54	0.0254148
5432.00	9.47	0.0254135
5436.00	9.41	0.0254038
5440.00	9.34	0.0253988
5444.00	9.27	0.0253767
5448.00	9.21	0.0253711
5452.00	9.14	0.0253591
5456.00	9.07	0.0253371
5460.00	9.01	0.0253468
5464.00	8.94	0.0253499
5468.00	8.87	0.0253531
5472.00	8.81	0.0253185
5476.00	8.74	0.0252865
5480.00	8.67	0.0252859
5484.00	8.61	0.0252529
5488.00	8.54	0.0252434
5492.00	8.48	0.0252217
5496.00	8.41	0.0251904
5500.00	8.34	0.0251847
5504.00	8.27	0.0251955
5508.00	8.21	0.0251904
5512.00	8.14	0.0251886
5516.00	8.07	0.0251727
5520.00	8.01	0.0251499
5524.00	7.94	0.0251396
5528.00	7.87	0.0251394
5532.00	7.81	0.0251461
5536.00	7.74	0.0251225
5540.00	7.67	0.0251100
5544.00	7.61	0.0251042
5548.00	7.54	0.0250947
5552.00	7.47	0.0250541
5556.00	7.41	0.0250403
5560.00	7.34	0.0250417
5564.00	7.27	0.0250532
5568.00	7.21	0.0250448
5572.00	7.14	0.0250278
5576.00	7.07	0.0250106
5580.00	7.01	0.0249719
5584.00	6.94	0.0249876
5588.00	6.87	0.0249787
5592.00	6.81	0.0249853
5596.00	6.74	0.0249551
5600.00	6.67	0.0249477
5604.00	6.61	0.0249302
5608.00	6.54	0.0249417
5612.00	6.47	0.0249365
5616.00	6.41	0.0249074
5620.00	6.34	0.0248951
5624.00	6.27	0.0248859
5628.00	6.21	0.0248875
5632.00	6.14	0.0248850
5636.00	6.07	0.0249007
5640.00	6.01	0.0248956
5644.00	5.94	0.0248735
5648.00	5.87	0.0248662
5652.00	5.81	0.0248439
5656.00	5.74	0.0248199
5660.00	5.67	0.0248172
5664.00	5.61	0.0247896
5668.00	5.54	0.0247874
5672.00	5.47	0.0247838
5676.00	5.41	0.0247671
5680.00	5.34	0.0247322
5684.00	5.27	0.0247400
5688.00	5.21	0.0247119
5692.00	5.14	0.0247138
5696.00	5.07	0.0247210
5700.00	5.01	0.0247303
5704.00	4.94	0.0247121
5708.00	4.87	0.0247216
5712.00	4.81	0.0247136
5716.00	4.74	0.0247409
5720.00	4.67	0.0247253
5724.00	4.61	0.0247030
5728.00	4.54	0.0246968
5732.00	4.47	0.0246941
5736.00	4.41	0.0246926
5740.00	4.34	0.0246833
5744.00	4.27	0.0246802
5748.00	4.21	0.0246538
5752.00	4.14	0.0246442
5756.00	4.07	0.0246576
5760.00	4.01	0.0246868
5764.00	3.94	0.0247127
5768.00	3.87	0.0246899
5772.00	3.81	0.0246884
5776.00	3.74	0.0246638
5780.00	3.67	0.0246476
5784.00	3.61	0.0246405
5788.00	3.54	0.0246254
5792.00	3.47	0.0245977
5796.00	3.41	0.0245676
5800.00	3.34	0.0245467
5804.00	3.27	0.0245354
5808.00	3.21	0.0245368
5812.00	3.14	0.0245347
5816.00	3.07	0.0245252
5820.00	3.01	0.0245095
5824.00	2.94	0.0245012
5828.00	2.87	0.0244895
5832.00	2.81	0.0244889
5836.00	2.74	0.0244986
5840.00	2.67	0.0244963
5844.00	2.60	0.0245028
5848.00	2.54	0.0244998
5852.00	2.47	0.0244907
5856.00	2.40	0.0244705
5860.00	2.34	0.0244508
5864.00	2.27	0.0244405
5868.00	2.21	0.0244619
5872.00	2.14	0.0244505
5876.00	2.07	0.0244425
5880.00	2.00	0.0244537
5884.00	1.94	0.0244306
5888.00	1.87	0.0244165
5892.00	1.81	0.0244080
5896.00	1.74	0.0243940
5900.00	1.67	0.0243836
5904.00	1.61	0.0243905
5908.00	1.54	0.0243830
5912.00	1.47	0.0243735
5916.00	1.41	0.0243532
5920.00	1.34	0.0243525
5924.00	1.27	0.0243523
5928.00	1.21	0.0243546
5932.00	1.14	0.0243448
5936.00	1.07	0.0243312
5940.00	1.00	0.0243262
5944.00	0.94	0.0243307
5948.00	0.87	0.0243274
5952.00	0.80	0.0242951
5956.00	0.74	0.0243199
5960.00	0.67	0.0243169
5964.00	0.61	0.0243257
5968.00	0.54	0.0243177
5972.00	0.47	0.0243025
5976.00	0.40	0.0242823
5980.00	0.34	0.0242854
5984.00	0.27	0.0242911
5988.00	0.20	0.0242914
5992.00	0.14	0.0242989
5996.00	0.07	0.0242502
5999.90	0.01	0.0242514