File: Differential scanning calorimetry/12OCB Squalane/12OCB SqA wt fraction 603.txt
Filename	12OCBSqA603
Instrument name	DSC2A-00101 (192.168.10.4)
Operator	Yuma
rundate	4/12/2021
Sample name	12OCBSqA603
proceduresegments	Data Off ; Equilibrate 150.00 °C; Isothermal 10.0 min; Equilibrate 100.00 °C; Isothermal 5.0 min; Data On ; Ramp 1.00 °C/min to 0.00 °C; Ramp 5.00 °C/min to 150.00 °C; Data Off ; Isothermal 10.0 min; Modulate Temperature 1.00 °C for 60.0 s; Equilibrate 100.00 °C; Isothermal 10.0 min; Data On ; Ramp 1.00 °C/min to 0.00 °C; Data Off ; Equilibrate 0.00 °C; Modulate Temperature 1.00 °C for 60.0 s; Isothermal 5.0 min; Data On ; Ramp 3.00 °C/min to 100.00 °C; Jump 30.00 °C
[step]
Ramp 1.00 °C/min to 0.00 °C
Time	Temperature	Heat Flow (Normalized)
s	°C	W/g
0.00000	99.85	-2.35758e-3
4.00000	99.84	-2.29752e-3
8.00000	99.82	-3.49745e-3
12.0000	99.78	5.33974e-4
16.0000	99.73	8.90734e-3
20.0000	99.67	0.0162207
24.0000	99.61	0.0217129
28.0000	99.54	0.0248239
32.0000	99.48	0.0271614
36.0000	99.42	0.0282672
40.0000	99.35	0.0290486
44.0000	99.28	0.0296892
48.0000	99.22	0.0301093
52.0000	99.15	0.0304728
56.0000	99.09	0.0308246
60.0000	99.02	0.0310810
64.0000	98.95	0.0312551
68.0000	98.89	0.0313888
72.0000	98.82	0.0315363
76.0000	98.76	0.0316789
80.0000	98.69	0.0318107
84.0000	98.62	0.0319062
88.0000	98.55	0.0320007
92.0000	98.49	0.0320820
96.0000	98.42	0.0321547
100.000	98.35	0.0322058
104.000	98.28	0.0322612
108.000	98.22	0.0322904
112.000	98.15	0.0323021
116.000	98.08	0.0322926
120.000	98.02	0.0322991
124.000	97.95	0.0322688
128.000	97.89	0.0322646
132.000	97.82	0.0322447
136.000	97.75	0.0322313
140.000	97.69	0.0322253
144.000	97.62	0.0322144
148.000	97.55	0.0321861
152.000	97.49	0.0321740
156.000	97.42	0.0321759
160.000	97.35	0.0321746
164.000	97.29	0.0321503
168.000	97.22	0.0321322
172.000	97.15	0.0321115
176.000	97.09	0.0320794
180.000	97.02	0.0320773
184.000	96.95	0.0320811
188.000	96.89	0.0320651
192.000	96.82	0.0320471
196.000	96.75	0.0320438
200.000	96.69	0.0320409
204.000	96.62	0.0320410
208.000	96.55	0.0320461
212.000	96.49	0.0320481
216.000	96.42	0.0320448
220.000	96.35	0.0320452
224.000	96.29	0.0320341
228.000	96.22	0.0320284
232.000	96.15	0.0320257
236.000	96.09	0.0320248
240.000	96.02	0.0320072
244.000	95.95	0.0319986
248.000	95.89	0.0320151
252.000	95.82	0.0320250
256.000	95.75	0.0320396
260.000	95.69	0.0320430
264.000	95.62	0.0320228
268.000	95.55	0.0320265
272.000	95.49	0.0320349
276.000	95.42	0.0320307
280.000	95.35	0.0320486
284.000	95.29	0.0320579
288.000	95.22	0.0320940
292.000	95.15	0.0320791
296.000	95.09	0.0320551
300.000	95.02	0.0320311
304.000	94.95	0.0320120
308.000	94.89	0.0320052
312.000	94.82	0.0320036
316.000	94.75	0.0319840
320.000	94.69	0.0319606
324.000	94.62	0.0319593
328.000	94.55	0.0319555
332.000	94.49	0.0319581
336.000	94.42	0.0319679
340.000	94.35	0.0319584
344.000	94.29	0.0319579
348.000	94.22	0.0319602
352.000	94.15	0.0319526
356.000	94.09	0.0319553
360.000	94.02	0.0319517
364.000	93.95	0.0319506
368.000	93.89	0.0319664
372.000	93.82	0.0319813
376.000	93.75	0.0319828
380.000	93.69	0.0319896
384.000	93.62	0.0319820
388.000	93.55	0.0319569
392.000	93.49	0.0319329
396.000	93.42	0.0319449
400.000	93.35	0.0319477
404.000	93.29	0.0319478
408.000	93.22	0.0319365
412.000	93.15	0.0319164
416.000	93.09	0.0318941
420.000	93.02	0.0318966
424.000	92.95	0.0318820
428.000	92.89	0.0318878
432.000	92.82	0.0318892
436.000	92.75	0.0318709
440.000	92.69	0.0318753
444.000	92.62	0.0318584
448.000	92.55	0.0318755
452.000	92.49	0.0318827
456.000	92.42	0.0318826
460.000	92.35	0.0318805
464.000	92.29	0.0318805
468.000	92.22	0.0318865
472.000	92.15	0.0318890
476.000	92.09	0.0318692
480.000	92.02	0.0318474
484.000	91.95	0.0318542
488.000	91.89	0.0318454
492.000	91.82	0.0318707
496.000	91.75	0.0318735
500.000	91.69	0.0318895
504.000	91.62	0.0318878
508.000	91.55	0.0318880
512.000	91.49	0.0318912
516.000	91.42	0.0319018
520.000	91.35	0.0319054
524.000	91.29	0.0319001
528.000	91.22	0.0319232
532.000	91.15	0.0319215
536.000	91.09	0.0319146
540.000	91.02	0.0318950
544.000	90.95	0.0318551
548.000	90.89	0.0318407
552.000	90.82	0.0318324
556.000	90.75	0.0318321
560.000	90.69	0.0318192
564.000	90.62	0.0317986
568.000	90.55	0.0317906
572.000	90.49	0.0317826
576.000	90.42	0.0317644
580.000	90.35	0.0317538
584.000	90.29	0.0317649
588.000	90.22	0.0317755
592.000	90.15	0.0317604
596.000	90.09	0.0317829
600.000	90.02	0.0318023
604.000	89.96	0.0318019
608.000	89.89	0.0317846
612.000	89.82	0.0317772
616.000	89.75	0.0317821
620.000	89.69	0.0317656
624.000	89.62	0.0317754
628.000	89.55	0.0317805
632.000	89.49	0.0317986
636.000	89.42	0.0317995
640.000	89.35	0.0317984
644.000	89.29	0.0318163
648.000	89.22	0.0318285
652.000	89.15	0.0318297
656.000	89.09	0.0318248
660.000	89.02	0.0317896
664.000	88.95	0.0317573
668.000	88.89	0.0317224
672.000	88.82	0.0317198
676.000	88.75	0.0317158
680.000	88.69	0.0317073
684.000	88.62	0.0316908
688.000	88.56	0.0316854
692.000	88.49	0.0316846
696.000	88.42	0.0317038
700.000	88.36	0.0317246
704.000	88.29	0.0317232
708.000	88.22	0.0317118
712.000	88.15	0.0317180
716.000	88.09	0.0317112
720.000	88.02	0.0317204
724.000	87.96	0.0317122
728.000	87.89	0.0317068
732.000	87.82	0.0316985
736.000	87.75	0.0316894
740.000	87.69	0.0316799
744.000	87.62	0.0316794
748.000	87.55	0.0316825
752.000	87.49	0.0316675
756.000	87.42	0.0316840
760.000	87.36	0.0316829
764.000	87.29	0.0316864
768.000	87.22	0.0316745
772.000	87.15	0.0316659
776.000	87.09	0.0316547
780.000	87.02	0.0316443
784.000	86.96	0.0316299
788.000	86.89	0.0316370
792.000	86.82	0.0316245
796.000	86.75	0.0316313
800.000	86.69	0.0316219
804.000	86.62	0.0316326
808.000	86.56	0.0316333
812.000	86.49	0.0316330
816.000	86.42	0.0316350
820.000	86.35	0.0316379
824.000	86.29	0.0316412
828.000	86.22	0.0316214
832.000	86.15	0.0316148
836.000	86.09	0.0316206
840.000	86.02	0.0316277
844.000	85.95	0.0316494
848.000	85.89	0.0316388
852.000	85.82	0.0316671
856.000	85.75	0.0316652
860.000	85.69	0.0316482
864.000	85.62	0.0316380
868.000	85.55	0.0316262
872.000	85.49	0.0316079
876.000	85.42	0.0315938
880.000	85.35	0.0315814
884.000	85.29	0.0315746
888.000	85.22	0.0315839
892.000	85.15	0.0315731
896.000	85.09	0.0315718
900.000	85.02	0.0315728
904.000	84.95	0.0315630
908.000	84.89	0.0315621
912.000	84.82	0.0315655
916.000	84.76	0.0315637
920.000	84.69	0.0315576
924.000	84.62	0.0315546
928.000	84.56	0.0315677
932.000	84.49	0.0315659
936.000	84.42	0.0315762
940.000	84.35	0.0315612
944.000	84.29	0.0315663
948.000	84.22	0.0315779
952.000	84.15	0.0315788
956.000	84.09	0.0315895
960.000	84.02	0.0315634
964.000	83.96	0.0315517
968.000	83.89	0.0315431
972.000	83.82	0.0315358
976.000	83.75	0.0315196
980.000	83.69	0.0315310
984.000	83.62	0.0315245
988.000	83.56	0.0315120
992.000	83.49	0.0315283
996.000	83.42	0.0315393
1000.00	83.36	0.0315370
1004.00	83.29	0.0315423
1008.00	83.22	0.0315409
1012.00	83.16	0.0315388
1016.00	83.09	0.0315569
1020.00	83.02	0.0315343
1024.00	82.95	0.0315213
1028.00	82.89	0.0315062
1032.00	82.82	0.0314942
1036.00	82.75	0.0314927
1040.00	82.69	0.0314889
1044.00	82.62	0.0314792
1048.00	82.56	0.0314701
1052.00	82.49	0.0314661
1056.00	82.42	0.0314628
1060.00	82.36	0.0314615
1064.00	82.29	0.0314565
1068.00	82.22	0.0314689
1072.00	82.15	0.0314730
1076.00	82.09	0.0314867
1080.00	82.02	0.0315029
1084.00	81.96	0.0314799
1088.00	81.89	0.0314675
1092.00	81.82	0.0314571
1096.00	81.76	0.0314667
1100.00	81.69	0.0314727
1104.00	81.62	0.0314670
1108.00	81.56	0.0314542
1112.00	81.49	0.0314384
1116.00	81.42	0.0314459
1120.00	81.36	0.0314363
1124.00	81.29	0.0314358
1128.00	81.22	0.0314435
1132.00	81.16	0.0314433
1136.00	81.09	0.0314383
1140.00	81.02	0.0314258
1144.00	80.95	0.0314260
1148.00	80.89	0.0314442
1152.00	80.82	0.0314327
1156.00	80.76	0.0314158
1160.00	80.69	0.0314036
1164.00	80.62	0.0314039
1168.00	80.56	0.0314094
1172.00	80.49	0.0314016
1176.00	80.42	0.0314129
1180.00	80.36	0.0314215
1184.00	80.29	0.0314098
1188.00	80.22	0.0314173
1192.00	80.16	0.0313917
1196.00	80.09	0.0314035
1200.00	80.02	0.0314084
1204.00	79.95	0.0314234
1208.00	79.89	0.0314285
1212.00	79.82	0.0314189
1216.00	79.76	0.0314219
1220.00	79.69	0.0314110
1224.00	79.62	0.0314005
1228.00	79.56	0.0313885
1232.00	79.49	0.0313871
1236.00	79.42	0.0313890
1240.00	79.36	0.0313959
1244.00	79.29	0.0313894
1248.00	79.22	0.0313854
1252.00	79.15	0.0313807
1256.00	79.09	0.0313795
1260.00	79.02	0.0313773
1264.00	78.96	0.0313782
1268.00	78.89	0.0313625
1272.00	78.82	0.0313537
1276.00	78.75	0.0313518
1280.00	78.69	0.0313525
1284.00	78.62	0.0313574
1288.00	78.55	0.0313516
1292.00	78.49	0.0313350
1296.00	78.42	0.0313583
1300.00	78.36	0.0313727
1304.00	78.29	0.0313361
1308.00	78.22	0.0313267
1312.00	78.16	0.0313224
1316.00	78.09	0.0313405
1320.00	78.02	0.0313361
1324.00	77.96	0.0313438
1328.00	77.89	0.0313561
1332.00	77.82	0.0313517
1336.00	77.76	0.0313486
1340.00	77.69	0.0313375
1344.00	77.62	0.0313336
1348.00	77.56	0.0313303
1352.00	77.49	0.0313258
1356.00	77.42	0.0313416
1360.00	77.36	0.0313430
1364.00	77.29	0.0313331
1368.00	77.22	0.0313004
1372.00	77.16	0.0312974
1376.00	77.09	0.0312855
1380.00	77.02	0.0312878
1384.00	76.96	0.0312656
1388.00	76.89	0.0312608
1392.00	76.82	0.0312579
1396.00	76.76	0.0312700
1400.00	76.69	0.0312577
1404.00	76.62	0.0312615
1408.00	76.56	0.0312728
1412.00	76.49	0.0312773
1416.00	76.42	0.0312759
1420.00	76.36	0.0312877
1424.00	76.29	0.0313027
1428.00	76.22	0.0312849
1432.00	76.16	0.0312755
1436.00	76.09	0.0312922
1440.00	76.02	0.0312891
1444.00	75.96	0.0312803
1448.00	75.89	0.0312822
1452.00	75.82	0.0312775
1456.00	75.76	0.0312806
1460.00	75.69	0.0312715
1464.00	75.62	0.0312823
1468.00	75.56	0.0312698
1472.00	75.49	0.0312599
1476.00	75.42	0.0312712
1480.00	75.36	0.0312772
1484.00	75.29	0.0312737
1488.00	75.22	0.0312647
1492.00	75.16	0.0312538
1496.00	75.09	0.0312534
1500.00	75.02	0.0312487
1504.00	74.96	0.0312399
1508.00	74.89	0.0312488
1512.00	74.82	0.0312108
1516.00	74.76	0.0312127
1520.00	74.69	0.0312215
1524.00	74.62	0.0312123
1528.00	74.56	0.0312294
1532.00	74.49	0.0312358
1536.00	74.42	0.0312511
1540.00	74.36	0.0312473
1544.00	74.29	0.0312394
1548.00	74.22	0.0312375
1552.00	74.16	0.0312437
1556.00	74.09	0.0312451
1560.00	74.02	0.0312394
1564.00	73.96	0.0312359
1568.00	73.89	0.0312109
1572.00	73.82	0.0312037
1576.00	73.75	0.0312246
1580.00	73.69	0.0312428
1584.00	73.62	0.0312610
1588.00	73.56	0.0312509
1592.00	73.49	0.0312384
1596.00	73.42	0.0312087
1600.00	73.36	0.0311858
1604.00	73.29	0.0311659
1608.00	73.22	0.0311322
1612.00	73.16	0.0311156
1616.00	73.09	0.0311283
1620.00	73.02	0.0311447
1624.00	72.96	0.0311427
1628.00	72.89	0.0311649
1632.00	72.82	0.0311598
1636.00	72.75	0.0311451
1640.00	72.69	0.0311570
1644.00	72.62	0.0311784
1648.00	72.56	0.0311762
1652.00	72.49	0.0311812
1656.00	72.42	0.0311673
1660.00	72.36	0.0311698
1664.00	72.29	0.0311797
1668.00	72.22	0.0311828
1672.00	72.16	0.0311623
1676.00	72.09	0.0311636
1680.00	72.02	0.0311721
1684.00	71.96	0.0311865
1688.00	71.89	0.0312084
1692.00	71.82	0.0311992
1696.00	71.76	0.0312059
1700.00	71.69	0.0311928
1704.00	71.62	0.0311999
1708.00	71.56	0.0312016
1712.00	71.49	0.0311813
1716.00	71.42	0.0311697
1720.00	71.36	0.0311463
1724.00	71.29	0.0311368
1728.00	71.22	0.0311421
1732.00	71.16	0.0311477
1736.00	71.09	0.0311608
1740.00	71.02	0.0311568
1744.00	70.96	0.0311371
1748.00	70.89	0.0311290
1752.00	70.82	0.0311203
1756.00	70.76	0.0311072
1760.00	70.69	0.0311012
1764.00	70.62	0.0311232
1768.00	70.56	0.0311345
1772.00	70.49	0.0311056
1776.00	70.42	0.0310966
1780.00	70.36	0.0311009
1784.00	70.29	0.0311163
1788.00	70.22	0.0311204
1792.00	70.16	0.0311161
1796.00	70.09	0.0311112
1800.00	70.02	0.0311280
1804.00	69.96	0.0311154
1808.00	69.89	0.0311106
1812.00	69.82	0.0311084
1816.00	69.76	0.0311056
1820.00	69.69	0.0311209
1824.00	69.62	0.0311176
1828.00	69.56	0.0311209
1832.00	69.49	0.0311473
1836.00	69.42	0.0311471
1840.00	69.36	0.0311617
1844.00	69.29	0.0311824
1848.00	69.22	0.0311639
1852.00	69.16	0.0311488
1856.00	69.09	0.0311162
1860.00	69.02	0.0310899
1864.00	68.96	0.0310798
1868.00	68.89	0.0310930
1872.00	68.82	0.0311070
1876.00	68.76	0.0311087
1880.00	68.69	0.0311054
1884.00	68.62	0.0311057
1888.00	68.56	0.0311140
1892.00	68.49	0.0310923
1896.00	68.42	0.0310726
1900.00	68.36	0.0310792
1904.00	68.29	0.0311086
1908.00	68.22	0.0311060
1912.00	68.16	0.0311117
1916.00	68.09	0.0311180
1920.00	68.02	0.0311221
1924.00	67.96	0.0311090
1928.00	67.89	0.0310947
1932.00	67.82	0.0310859
1936.00	67.76	0.0310889
1940.00	67.69	0.0310939
1944.00	67.62	0.0310935
1948.00	67.56	0.0310870
1952.00	67.49	0.0310847
1956.00	67.42	0.0311039
1960.00	67.36	0.0311182
1964.00	67.29	0.0311120
1968.00	67.22	0.0311130
1972.00	67.16	0.0311118
1976.00	67.09	0.0311227
1980.00	67.02	0.0311262
1984.00	66.96	0.0311334
1988.00	66.89	0.0311425
1992.00	66.82	0.0311426
1996.00	66.76	0.0311227
2000.00	66.69	0.0311113
2004.00	66.62	0.0311261
2008.00	66.56	0.0311305
2012.00	66.49	0.0311297
2016.00	66.42	0.0311127
2020.00	66.36	0.0310997
2024.00	66.29	0.0310946
2028.00	66.22	0.0310904
2032.00	66.16	0.0310727
2036.00	66.09	0.0310825
2040.00	66.02	0.0310863
2044.00	65.96	0.0310755
2048.00	65.89	0.0310815
2052.00	65.82	0.0310977
2056.00	65.76	0.0311023
2060.00	65.69	0.0311086
2064.00	65.62	0.0311196
2068.00	65.56	0.0311142
2072.00	65.49	0.0311105
2076.00	65.42	0.0311041
2080.00	65.36	0.0311032
2084.00	65.29	0.0311023
2088.00	65.22	0.0310885
2092.00	65.16	0.0310847
2096.00	65.09	0.0310965
2100.00	65.02	0.0311088
2104.00	64.96	0.0311328
2108.00	64.89	0.0311359
2112.00	64.82	0.0311411
2116.00	64.76	0.0311543
2120.00	64.69	0.0311412
2124.00	64.62	0.0311410
2128.00	64.56	0.0311396
2132.00	64.49	0.0311494
2136.00	64.42	0.0311535
2140.00	64.36	0.0311631
2144.00	64.29	0.0311480
2148.00	64.22	0.0311485
2152.00	64.16	0.0311572
2156.00	64.09	0.0311605
2160.00	64.02	0.0311677
2164.00	63.96	0.0311750
2168.00	63.89	0.0311911
2172.00	63.82	0.0312109
2176.00	63.76	0.0312239
2180.00	63.69	0.0312560
2184.00	63.62	0.0312705
2188.00	63.56	0.0312876
2192.00	63.49	0.0313398
2196.00	63.42	0.0313549
2200.00	63.36	0.0313687
2204.00	63.29	0.0313755
2208.00	63.22	0.0313655
2212.00	63.16	0.0313694
2216.00	63.09	0.0313977
2220.00	63.02	0.0313847
2224.00	62.96	0.0313340
2228.00	62.90	0.0349548
2232.00	62.84	0.0393116
2236.00	62.77	0.0434687
2240.00	62.71	0.0512158
2244.00	62.65	0.0578491
2248.00	62.59	0.0593010
2252.00	62.52	0.0590720
2256.00	62.45	0.0588785
2260.00	62.38	0.0587105
2264.00	62.32	0.0574731
2268.00	62.25	0.0567205
2272.00	62.18	0.0561995
2276.00	62.11	0.0556573
2280.00	62.05	0.0551084
2284.00	61.98	0.0545732
2288.00	61.91	0.0540219
2292.00	61.84	0.0535326
2296.00	61.78	0.0530108
2300.00	61.71	0.0525609
2304.00	61.64	0.0521437
2308.00	61.58	0.0517469
2312.00	61.51	0.0513625
2316.00	61.44	0.0510126
2320.00	61.38	0.0506573
2324.00	61.31	0.0503121
2328.00	61.24	0.0500049
2332.00	61.17	0.0497073
2336.00	61.11	0.0494040
2340.00	61.04	0.0491096
2344.00	60.97	0.0487996
2348.00	60.91	0.0485034
2352.00	60.84	0.0482096
2356.00	60.77	0.0479245
2360.00	60.71	0.0476435
2364.00	60.64	0.0473576
2368.00	60.57	0.0470979
2372.00	60.51	0.0468638
2376.00	60.44	0.0466170
2380.00	60.37	0.0464033
2384.00	60.31	0.0461581
2388.00	60.24	0.0459262
2392.00	60.17	0.0456900
2396.00	60.11	0.0454388
2400.00	60.04	0.0452013
2404.00	59.97	0.0449868
2408.00	59.90	0.0447821
2412.00	59.84	0.0445866
2416.00	59.77	0.0443895
2420.00	59.70	0.0441732
2424.00	59.64	0.0440006
2428.00	59.57	0.0438376
2432.00	59.50	0.0436480
2436.00	59.44	0.0434745
2440.00	59.37	0.0433063
2444.00	59.30	0.0431335
2448.00	59.24	0.0429334
2452.00	59.17	0.0427407
2456.00	59.10	0.0425758
2460.00	59.03	0.0424262
2464.00	58.97	0.0422546
2468.00	58.90	0.0420744
2472.00	58.83	0.0419192
2476.00	58.77	0.0417803
2480.00	58.70	0.0415987
2484.00	58.63	0.0414325
2488.00	58.57	0.0412733
2492.00	58.50	0.0411483
2496.00	58.43	0.0410110
2500.00	58.37	0.0408852
2504.00	58.30	0.0407692
2508.00	58.23	0.0406125
2512.00	58.17	0.0404774
2516.00	58.10	0.0403358
2520.00	58.03	0.0402116
2524.00	57.97	0.0400689
2528.00	57.90	0.0399331
2532.00	57.83	0.0398007
2536.00	57.77	0.0396895
2540.00	57.70	0.0395893
2544.00	57.63	0.0394824
2548.00	57.57	0.0393811
2552.00	57.50	0.0392927
2556.00	57.43	0.0391806
2560.00	57.36	0.0390798
2564.00	57.30	0.0389773
2568.00	57.23	0.0388761
2572.00	57.17	0.0387641
2576.00	57.10	0.0386553
2580.00	57.03	0.0385436
2584.00	56.96	0.0384353
2588.00	56.90	0.0383425
2592.00	56.83	0.0382309
2596.00	56.76	0.0381620
2600.00	56.70	0.0380603
2604.00	56.63	0.0379665
2608.00	56.56	0.0378948
2612.00	56.50	0.0378136
2616.00	56.43	0.0377267
2620.00	56.36	0.0376512
2624.00	56.30	0.0375666
2628.00	56.23	0.0374806
2632.00	56.16	0.0374157
2636.00	56.10	0.0373370
2640.00	56.03	0.0372693
2644.00	55.96	0.0371738
2648.00	55.90	0.0371005
2652.00	55.83	0.0370403
2656.00	55.76	0.0369922
2660.00	55.70	0.0368889
2664.00	55.63	0.0368125
2668.00	55.56	0.0367570
2672.00	55.50	0.0367063
2676.00	55.43	0.0366416
2680.00	55.36	0.0365683
2684.00	55.30	0.0365127
2688.00	55.23	0.0364235
2692.00	55.16	0.0363477
2696.00	55.10	0.0362897
2700.00	55.03	0.0362176
2704.00	54.96	0.0361531
2708.00	54.90	0.0360689
2712.00	54.83	0.0359992
2716.00	54.76	0.0359253
2720.00	54.70	0.0358591
2724.00	54.63	0.0357978
2728.00	54.56	0.0357533
2732.00	54.50	0.0357223
2736.00	54.43	0.0356803
2740.00	54.36	0.0356363
2744.00	54.30	0.0355901
2748.00	54.23	0.0355471
2752.00	54.16	0.0355026
2756.00	54.10	0.0354551
2760.00	54.03	0.0354003
2764.00	53.96	0.0353638
2768.00	53.90	0.0353079
2772.00	53.83	0.0352414
2776.00	53.76	0.0351898
2780.00	53.70	0.0351383
2784.00	53.63	0.0350950
2788.00	53.56	0.0350291
2792.00	53.49	0.0349901
2796.00	53.43	0.0349429
2800.00	53.36	0.0348956
2804.00	53.29	0.0348608
2808.00	53.23	0.0348345
2812.00	53.16	0.0348034
2816.00	53.10	0.0347555
2820.00	53.03	0.0346842
2824.00	52.96	0.0346502
2828.00	52.89	0.0346029
2832.00	52.83	0.0345982
2836.00	52.76	0.0345592
2840.00	52.69	0.0345077
2844.00	52.63	0.0344639
2848.00	52.56	0.0344286
2852.00	52.49	0.0344028
2856.00	52.43	0.0343733
2860.00	52.36	0.0343411
2864.00	52.29	0.0343003
2868.00	52.23	0.0342519
2872.00	52.16	0.0341973
2876.00	52.09	0.0341738
2880.00	52.03	0.0341462
2884.00	51.96	0.0341172
2888.00	51.90	0.0340859
2892.00	51.83	0.0340855
2896.00	51.76	0.0340649
2900.00	51.69	0.0340485
2904.00	51.63	0.0340096
2908.00	51.56	0.0339874
2912.00	51.49	0.0339655
2916.00	51.43	0.0339306
2920.00	51.36	0.0338971
2924.00	51.29	0.0338574
2928.00	51.23	0.0338319
2932.00	51.16	0.0337928
2936.00	51.09	0.0337542
2940.00	51.03	0.0337244
2944.00	50.96	0.0336689
2948.00	50.89	0.0336359
2952.00	50.83	0.0335779
2956.00	50.76	0.0335364
2960.00	50.69	0.0335094
2964.00	50.63	0.0334997
2968.00	50.56	0.0334865
2972.00	50.49	0.0334809
2976.00	50.43	0.0334598
2980.00	50.36	0.0334362
2984.00	50.29	0.0334245
2988.00	50.23	0.0333845
2992.00	50.16	0.0333556
2996.00	50.09	0.0333158
3000.00	50.03	0.0333083
3004.00	49.96	0.0332908
3008.00	49.89	0.0332479
3012.00	49.83	0.0332284
3016.00	49.76	0.0331950
3020.00	49.69	0.0331603
3024.00	49.63	0.0331356
3028.00	49.56	0.0331054
3032.00	49.49	0.0330892
3036.00	49.43	0.0330822
3040.00	49.36	0.0330972
3044.00	49.29	0.0330660
3048.00	49.23	0.0330493
3052.00	49.16	0.0330315
3056.00	49.09	0.0329985
3060.00	49.03	0.0329877
3064.00	48.96	0.0329649
3068.00	48.89	0.0329328
3072.00	48.83	0.0329203
3076.00	48.76	0.0328922
3080.00	48.69	0.0328501
3084.00	48.63	0.0328091
3088.00	48.56	0.0327833
3092.00	48.49	0.0327455
3096.00	48.43	0.0327254
3100.00	48.36	0.0326990
3104.00	48.29	0.0326787
3108.00	48.22	0.0326518
3112.00	48.16	0.0326288
3116.00	48.09	0.0325721
3120.00	48.03	0.0325741
3124.00	47.96	0.0325607
3128.00	47.89	0.0325432
3132.00	47.83	0.0325428
3136.00	47.76	0.0325696
3140.00	47.69	0.0325683
3144.00	47.63	0.0325755
3148.00	47.56	0.0325824
3152.00	47.49	0.0326021
3156.00	47.43	0.0326245
3160.00	47.36	0.0326187
3164.00	47.29	0.0325784
3168.00	47.23	0.0325431
3172.00	47.16	0.0324937
3176.00	47.09	0.0324716
3180.00	47.03	0.0324333
3184.00	46.96	0.0324240
3188.00	46.89	0.0324197
3192.00	46.83	0.0324384
3196.00	46.76	0.0324244
3200.00	46.75	3.57106e-3
3204.00	46.98	0.169951
3208.00	47.41	0.586422
3212.00	47.77	1.10297
3216.00	47.94	1.37685
3220.00	47.95	1.48954
3224.00	47.86	1.49596
3228.00	47.65	1.51228
3232.00	47.11	1.02921
3236.00	46.72	0.691989
3240.00	46.44	0.470865
3244.00	46.23	0.319372
3248.00	46.07	0.220779
3252.00	45.94	0.156652
3256.00	45.84	0.115143
3260.00	45.74	0.0871071
3264.00	45.66	0.0690591
3268.00	45.58	0.0572589
3272.00	45.51	0.0495501
3276.00	45.44	0.0445811
3280.00	45.37	0.0413874
3284.00	45.30	0.0393074
3288.00	45.23	0.0380198
3292.00	45.16	0.0372864
3296.00	45.09	0.0367113
3300.00	45.03	0.0361816
3304.00	44.96	0.0356943
3308.00	44.89	0.0351986
3312.00	44.83	0.0347856
3316.00	44.76	0.0344167
3320.00	44.69	0.0340989
3324.00	44.63	0.0338240
3328.00	44.56	0.0335911
3332.00	44.49	0.0333887
3336.00	44.43	0.0331915
3340.00	44.36	0.0330169
3344.00	44.29	0.0328883
3348.00	44.23	0.0327540
3352.00	44.16	0.0326429
3356.00	44.09	0.0325273
3360.00	44.03	0.0324241
3364.00	43.96	0.0323490
3368.00	43.89	0.0322585
3372.00	43.83	0.0321918
3376.00	43.76	0.0321354
3380.00	43.69	0.0320819
3384.00	43.63	0.0320332
3388.00	43.56	0.0319781
3392.00	43.49	0.0319259
3396.00	43.43	0.0318873
3400.00	43.36	0.0318243
3404.00	43.29	0.0317622
3408.00	43.23	0.0316986
3412.00	43.16	0.0316776
3416.00	43.09	0.0316355
3420.00	43.02	0.0315986
3424.00	42.96	0.0315553
3428.00	42.89	0.0314965
3432.00	42.82	0.0314539
3436.00	42.76	0.0313971
3440.00	42.69	0.0313571
3444.00	42.62	0.0313252
3448.00	42.56	0.0312899
3452.00	42.49	0.0312473
3456.00	42.42	0.0312112
3460.00	42.36	0.0311740
3464.00	42.29	0.0311402
3468.00	42.22	0.0311063
3472.00	42.16	0.0310708
3476.00	42.09	0.0310366
3480.00	42.03	0.0309788
3484.00	41.96	0.0309489
3488.00	41.89	0.0309162
3492.00	41.82	0.0308931
3496.00	41.76	0.0308792
3500.00	41.69	0.0308524
3504.00	41.63	0.0308304
3508.00	41.56	0.0308025
3512.00	41.49	0.0307623
3516.00	41.42	0.0307327
3520.00	41.36	0.0306904
3524.00	41.29	0.0306727
3528.00	41.22	0.0306451
3532.00	41.16	0.0306223
3536.00	41.09	0.0305847
3540.00	41.02	0.0305716
3544.00	40.96	0.0305666
3548.00	40.89	0.0305287
3552.00	40.82	0.0304922
3556.00	40.76	0.0304502
3560.00	40.69	0.0304075
3564.00	40.62	0.0303569
3568.00	40.56	0.0303244
3572.00	40.49	0.0303095
3576.00	40.42	0.0302706
3580.00	40.36	0.0302400
3584.00	40.29	0.0302148
3588.00	40.22	0.0301965
3592.00	40.16	0.0301537
3596.00	40.09	0.0301432
3600.00	40.02	0.0301385
3604.00	39.96	0.0301352
3608.00	39.89	0.0301088
3612.00	39.82	0.0300804
3616.00	39.76	0.0300780
3620.00	39.69	0.0300508
3624.00	39.62	0.0300168
3628.00	39.56	0.0299862
3632.00	39.49	0.0299437
3636.00	39.42	0.0299171
3640.00	39.36	0.0298861
3644.00	39.29	0.0298417
3648.00	39.22	0.0298178
3652.00	39.16	0.0297839
3656.00	39.09	0.0297804
3660.00	39.02	0.0297559
3664.00	38.96	0.0297340
3668.00	38.89	0.0296838
3672.00	38.82	0.0296516
3676.00	38.76	0.0296342
3680.00	38.69	0.0296081
3684.00	38.62	0.0295903
3688.00	38.56	0.0295446
3692.00	38.49	0.0295320
3696.00	38.42	0.0295193
3700.00	38.36	0.0295088
3704.00	38.29	0.0295094
3708.00	38.22	0.0295024
3712.00	38.16	0.0294742
3716.00	38.09	0.0294522
3720.00	38.02	0.0294130
3724.00	37.96	0.0293864
3728.00	37.89	0.0293618
3732.00	37.82	0.0293338
3736.00	37.76	0.0293205
3740.00	37.69	0.0292972
3744.00	37.62	0.0292666
3748.00	37.56	0.0292479
3752.00	37.49	0.0292118
3756.00	37.42	0.0291870
3760.00	37.36	0.0291640
3764.00	37.29	0.0291379
3768.00	37.22	0.0290999
3772.00	37.16	0.0291017
3776.00	37.09	0.0290620
3780.00	37.02	0.0290534
3784.00	36.96	0.0290284
3788.00	36.89	0.0290218
3792.00	36.82	0.0289899
3796.00	36.76	0.0289877
3800.00	36.69	0.0289819
3804.00	36.62	0.0289706
3808.00	36.56	0.0289599
3812.00	36.49	0.0289361
3816.00	36.42	0.0289016
3820.00	36.35	0.0288855
3824.00	36.29	0.0288586
3828.00	36.22	0.0288252
3832.00	36.16	0.0288158
3836.00	36.09	0.0287770
3840.00	36.02	0.0287371
3844.00	35.96	0.0287239
3848.00	35.89	0.0287202
3852.00	35.82	0.0287018
3856.00	35.76	0.0286950
3860.00	35.69	0.0286791
3864.00	35.62	0.0286726
3868.00	35.55	0.0286649
3872.00	35.49	0.0286662
3876.00	35.42	0.0286367
3880.00	35.35	0.0286350
3884.00	35.29	0.0285994
3888.00	35.22	0.0285617
3892.00	35.15	0.0285443
3896.00	35.09	0.0285265
3900.00	35.02	0.0284871
3904.00	34.96	0.0284564
3908.00	34.89	0.0284168
3912.00	34.82	0.0283799
3916.00	34.76	0.0283362
3920.00	34.69	0.0283243
3924.00	34.62	0.0283178
3928.00	34.56	0.0283055
3932.00	34.49	0.0283125
3936.00	34.42	0.0283030
3940.00	34.36	0.0283048
3944.00	34.29	0.0282977
3948.00	34.22	0.0282914
3952.00	34.16	0.0282840
3956.00	34.09	0.0282691
3960.00	34.02	0.0282403
3964.00	33.96	0.0282165
3968.00	33.89	0.0282005
3972.00	33.82	0.0282169
3976.00	33.76	0.0281909
3980.00	33.69	0.0281769
3984.00	33.62	0.0281653
3988.00	33.56	0.0281500
3992.00	33.49	0.0280990
3996.00	33.42	0.0280746
4000.00	33.36	0.0280656
4004.00	33.29	0.0280606
4008.00	33.22	0.0280671
4012.00	33.16	0.0280581
4016.00	33.09	0.0280479
4020.00	33.02	0.0280273
4024.00	32.95	0.0280256
4028.00	32.89	0.0280126
4032.00	32.82	0.0279981
4036.00	32.76	0.0279864
4040.00	32.69	0.0279547
4044.00	32.62	0.0279368
4048.00	32.55	0.0279226
4052.00	32.49	0.0278997
4056.00	32.42	0.0278691
4060.00	32.36	0.0278600
4064.00	32.29	0.0278443
4068.00	32.22	0.0278531
4072.00	32.16	0.0278572
4076.00	32.09	0.0278573
4080.00	32.02	0.0278549
4084.00	31.95	0.0278507
4088.00	31.89	0.0278396
4092.00	31.82	0.0278117
4096.00	31.75	0.0277653
4100.00	31.69	0.0277323
4104.00	31.62	0.0277085
4108.00	31.55	0.0276803
4112.00	31.49	0.0276629
4116.00	31.42	0.0276467
4120.00	31.35	0.0276460
4124.00	31.29	0.0276269
4128.00	31.22	0.0275920
4132.00	31.16	0.0275746
4136.00	31.09	0.0275754
4140.00	31.02	0.0275975
4144.00	30.96	0.0275832
4148.00	30.89	0.0275798
4152.00	30.82	0.0275986
4156.00	30.75	0.0276071
4160.00	30.69	0.0275965
4164.00	30.62	0.0275591
4168.00	30.55	0.0275189
4172.00	30.49	0.0274960
4176.00	30.42	0.0274747
4180.00	30.35	0.0274507
4184.00	30.29	0.0274422
4188.00	30.22	0.0274322
4192.00	30.16	0.0274295
4196.00	30.09	0.0274305
4200.00	30.02	0.0274349
4204.00	29.95	0.0274297
4208.00	29.89	0.0274009
4212.00	29.82	0.0273958
4216.00	29.75	0.0273894
4220.00	29.69	0.0273515
4224.00	29.62	0.0273241
4228.00	29.55	0.0273257
4232.00	29.49	0.0273039
4236.00	29.42	0.0272791
4240.00	29.35	0.0272725
4244.00	29.29	0.0272470
4248.00	29.22	0.0272410
4252.00	29.15	0.0272265
4256.00	29.09	0.0272128
4260.00	29.02	0.0272026
4264.00	28.95	0.0271938
4268.00	28.89	0.0271947
4272.00	28.82	0.0271950
4276.00	28.75	0.0271836
4280.00	28.69	0.0271594
4284.00	28.62	0.0271220
4288.00	28.55	0.0271250
4292.00	28.49	0.0271228
4296.00	28.42	0.0271340
4300.00	28.35	0.0271413
4304.00	28.29	0.0271413
4308.00	28.22	0.0271291
4312.00	28.15	0.0270916
4316.00	28.09	0.0270676
4320.00	28.02	0.0270194
4324.00	27.95	0.0270138
4328.00	27.89	0.0269775
4332.00	27.82	0.0269563
4336.00	27.75	0.0269459
4340.00	27.69	0.0269296
4344.00	27.62	0.0269032
4348.00	27.55	0.0269217
4352.00	27.49	0.0269171
4356.00	27.42	0.0269037
4360.00	27.35	0.0268848
4364.00	27.29	0.0268675
4368.00	27.22	0.0268564
4372.00	27.15	0.0268637
4376.00	27.09	0.0268484
4380.00	27.02	0.0268376
4384.00	26.95	0.0268246
4388.00	26.89	0.0268220
4392.00	26.82	0.0268268
4396.00	26.75	0.0268073
4400.00	26.69	0.0267919
4404.00	26.62	0.0267933
4408.00	26.55	0.0267757
4412.00	26.49	0.0267678
4416.00	26.42	0.0267582
4420.00	26.35	0.0267372
4424.00	26.29	0.0267297
4428.00	26.22	0.0267053
4432.00	26.15	0.0266826
4436.00	26.09	0.0266894
4440.00	26.02	0.0267092
4444.00	25.95	0.0267320
4448.00	25.89	0.0267204
4452.00	25.82	0.0267147
4456.00	25.75	0.0266798
4460.00	25.69	0.0266301
4464.00	25.62	0.0266020
4468.00	25.55	0.0265889
4472.00	25.49	0.0265795
4476.00	25.42	0.0265696
4480.00	25.36	0.0265651
4484.00	25.29	0.0265674
4488.00	25.22	0.0265510
4492.00	25.15	0.0265461
4496.00	25.09	0.0265442
4500.00	25.02	0.0265324
4504.00	24.95	0.0265120
4508.00	24.89	0.0265050
4512.00	24.82	0.0265017
4516.00	24.75	0.0264923
4520.00	24.69	0.0264563
4524.00	24.62	0.0264442
4528.00	24.55	0.0264345
4532.00	24.49	0.0264318
4536.00	24.42	0.0264354
4540.00	24.35	0.0264414
4544.00	24.29	0.0264024
4548.00	24.22	0.0263879
4552.00	24.15	0.0263616
4556.00	24.09	0.0263484
4560.00	24.02	0.0263279
4564.00	23.95	0.0263163
4568.00	23.89	0.0263324
4572.00	23.82	0.0263389
4576.00	23.75	0.0263209
4580.00	23.69	0.0263091
4584.00	23.62	0.0263088
4588.00	23.55	0.0263100
4592.00	23.49	0.0262870
4596.00	23.42	0.0262693
4600.00	23.35	0.0262500
4604.00	23.29	0.0262223
4608.00	23.22	0.0262229
4612.00	23.15	0.0262308
4616.00	23.09	0.0262109
4620.00	23.02	0.0261998
4624.00	22.95	0.0261911
4628.00	22.89	0.0261809
4632.00	22.82	0.0261734
4636.00	22.75	0.0261707
4640.00	22.69	0.0261503
4644.00	22.62	0.0261299
4648.00	22.55	0.0260988
4652.00	22.49	0.0260955
4656.00	22.42	0.0260879
4660.00	22.35	0.0260925
4664.00	22.29	0.0260709
4668.00	22.22	0.0260544
4672.00	22.15	0.0260481
4676.00	22.09	0.0260166
4680.00	22.02	0.0259976
4684.00	21.95	0.0259738
4688.00	21.89	0.0259814
4692.00	21.82	0.0259814
4696.00	21.75	0.0259803
4700.00	21.69	0.0259766
4704.00	21.62	0.0259949
4708.00	21.55	0.0259728
4712.00	21.49	0.0259771
4716.00	21.42	0.0259601
4720.00	21.35	0.0259409
4724.00	21.29	0.0259179
4728.00	21.22	0.0259123
4732.00	21.15	0.0258843
4736.00	21.09	0.0258878
4740.00	21.02	0.0258635
4744.00	20.95	0.0258834
4748.00	20.89	0.0258750
4752.00	20.82	0.0258537
4756.00	20.75	0.0258436
4760.00	20.69	0.0258073
4764.00	20.62	0.0257951
4768.00	20.55	0.0257942
4772.00	20.49	0.0257625
4776.00	20.42	0.0257383
4780.00	20.35	0.0257313
4784.00	20.29	0.0257248
4788.00	20.22	0.0257402
4792.00	20.15	0.0257140
4796.00	20.09	0.0256889
4800.00	20.02	0.0256945
4804.00	19.95	0.0256888
4808.00	19.89	0.0256864
4812.00	19.82	0.0256834
4816.00	19.75	0.0256852
4820.00	19.69	0.0256869
4824.00	19.62	0.0256715
4828.00	19.55	0.0256513
4832.00	19.49	0.0256352
4836.00	19.42	0.0256061
4840.00	19.35	0.0256039
4844.00	19.29	0.0255964
4848.00	19.22	0.0256100
4852.00	19.15	0.0256103
4856.00	19.09	0.0255894
4860.00	19.02	0.0255803
4864.00	18.95	0.0255493
4868.00	18.89	0.0255443
4872.00	18.82	0.0255241
4876.00	18.75	0.0255010
4880.00	18.69	0.0254960
4884.00	18.62	0.0254820
4888.00	18.55	0.0254774
4892.00	18.49	0.0254471
4896.00	18.42	0.0254270
4900.00	18.35	0.0254369
4904.00	18.28	0.0254347
4908.00	18.22	0.0254563
4912.00	18.15	0.0254657
4916.00	18.09	0.0254567
4920.00	18.02	0.0254432
4924.00	17.95	0.0254468
4928.00	17.89	0.0254451
4932.00	17.82	0.0254211
4936.00	17.75	0.0253959
4940.00	17.69	0.0253778
4944.00	17.62	0.0253568
4948.00	17.55	0.0253363
4952.00	17.49	0.0253241
4956.00	17.42	0.0253129
4960.00	17.35	0.0253048
4964.00	17.29	0.0253004
4968.00	17.22	0.0252716
4972.00	17.15	0.0252551
4976.00	17.09	0.0252546
4980.00	17.02	0.0252447
4984.00	16.95	0.0252358
4988.00	16.89	0.0252322
4992.00	16.82	0.0252052
4996.00	16.75	0.0252163
5000.00	16.69	0.0252093
5004.00	16.62	0.0252101
5008.00	16.55	0.0251935
5012.00	16.49	0.0251736
5016.00	16.42	0.0251582
5020.00	16.35	0.0251389
5024.00	16.29	0.0251037
5028.00	16.22	0.0250821
5032.00	16.15	0.0250869
5036.00	16.09	0.0250864
5040.00	16.02	0.0250659
5044.00	15.95	0.0250537
5048.00	15.89	0.0250370
5052.00	15.82	0.0250486
5056.00	15.75	0.0250509
5060.00	15.68	0.0250546
5064.00	15.62	0.0250543
5068.00	15.55	0.0250682
5072.00	15.49	0.0250566
5076.00	15.42	0.0250460
5080.00	15.35	0.0250160
5084.00	15.29	0.0250021
5088.00	15.22	0.0249999
5092.00	15.15	0.0250006
5096.00	15.09	0.0249852
5100.00	15.02	0.0249624
5104.00	14.95	0.0249445
5108.00	14.89	0.0249298
5112.00	14.82	0.0249139
5116.00	14.75	0.0249002
5120.00	14.69	0.0248890
5124.00	14.62	0.0248791
5128.00	14.55	0.0248732
5132.00	14.49	0.0248669
5136.00	14.42	0.0248842
5140.00	14.35	0.0248803
5144.00	14.29	0.0248721
5148.00	14.22	0.0248373
5152.00	14.15	0.0248159
5156.00	14.09	0.0247999
5160.00	14.02	0.0247997
5164.00	13.95	0.0247914
5168.00	13.88	0.0247859
5172.00	13.82	0.0247810
5176.00	13.75	0.0247722
5180.00	13.68	0.0247718
5184.00	13.62	0.0247746
5188.00	13.55	0.0247600
5192.00	13.49	0.0247333
5196.00	13.42	0.0247246
5200.00	13.35	0.0247181
5204.00	13.29	0.0247066
5208.00	13.22	0.0247187
5212.00	13.15	0.0247153
5216.00	13.08	0.0247408
5220.00	13.02	0.0247614
5224.00	12.95	0.0247416
5228.00	12.88	0.0247064
5232.00	12.82	0.0246824
5236.00	12.75	0.0246719
5240.00	12.68	0.0246625
5244.00	12.62	0.0246495
5248.00	12.55	0.0246330
5252.00	12.49	0.0246195
5256.00	12.42	0.0246067
5260.00	12.35	0.0245946
5264.00	12.28	0.0246046
5268.00	12.22	0.0245954
5272.00	12.15	0.0245720
5276.00	12.09	0.0245538
5280.00	12.02	0.0245414
5284.00	11.95	0.0245397
5288.00	11.89	0.0245265
5292.00	11.82	0.0245235
5296.00	11.75	0.0245027
5300.00	11.69	0.0245052
5304.00	11.62	0.0245070
5308.00	11.55	0.0244914
5312.00	11.49	0.0244649
5316.00	11.42	0.0244417
5320.00	11.35	0.0244330
5324.00	11.29	0.0244279
5328.00	11.22	0.0244007
5332.00	11.15	0.0243883
5336.00	11.09	0.0243760
5340.00	11.02	0.0243744
5344.00	10.95	0.0243675
5348.00	10.89	0.0243510
5352.00	10.82	0.0243373
5356.00	10.75	0.0243409
5360.00	10.69	0.0243428
5364.00	10.62	0.0243443
5368.00	10.55	0.0243606
5372.00	10.48	0.0243669
5376.00	10.42	0.0243874
5380.00	10.35	0.0243962
5384.00	10.28	0.0243883
5388.00	10.22	0.0243827
5392.00	10.15	0.0243650
5396.00	10.09	0.0243403
5400.00	10.02	0.0243264
5404.00	9.95	0.0243141
5408.00	9.88	0.0242902
5412.00	9.82	0.0242920
5416.00	9.75	0.0243056
5420.00	9.68	0.0242867
5424.00	9.62	0.0242572
5428.00	9.55	0.0242557
5432.00	9.48	0.0242369
5436.00	9.42	0.0242285
5440.00	9.35	0.0242139
5444.00	9.28	0.0242107
5448.00	9.22	0.0242119
5452.00	9.15	0.0242100
5456.00	9.08	0.0241990
5460.00	9.02	0.0241901
5464.00	8.95	0.0241894
5468.00	8.88	0.0241661
5472.00	8.82	0.0241541
5476.00	8.75	0.0241282
5480.00	8.68	0.0241087
5484.00	8.62	0.0240770
5488.00	8.55	0.0240744
5492.00	8.49	0.0240541
5496.00	8.42	0.0240572
5500.00	8.35	0.0240662
5504.00	8.29	0.0240580
5508.00	8.22	0.0240571
5512.00	8.15	0.0240528
5516.00	8.09	0.0240430
5520.00	8.02	0.0240140
5524.00	7.95	0.0240259
5528.00	7.89	0.0240032
5532.00	7.82	0.0240136
5536.00	7.75	0.0239961
5540.00	7.68	0.0239955
5544.00	7.62	0.0240128
5548.00	7.55	0.0239968
5552.00	7.49	0.0239899
5556.00	7.42	0.0240082
5560.00	7.35	0.0240019
5564.00	7.28	0.0239929
5568.00	7.22	0.0239917
5572.00	7.15	0.0239778
5576.00	7.08	0.0239480
5580.00	7.02	0.0239423
5584.00	6.95	0.0239319
5588.00	6.88	0.0239163
5592.00	6.82	0.0238881
5596.00	6.75	0.0238955
5600.00	6.68	0.0238880
5604.00	6.62	0.0238616
5608.00	6.55	0.0238469
5612.00	6.48	0.0238142
5616.00	6.42	0.0238079
5620.00	6.35	0.0238026
5624.00	6.29	0.0238149
5628.00	6.22	0.0237950
5632.00	6.15	0.0237899
5636.00	6.08	0.0238083
5640.00	6.02	0.0237853
5644.00	5.95	0.0237786
5648.00	5.88	0.0237801
5652.00	5.82	0.0237810
5656.00	5.75	0.0237803
5660.00	5.69	0.0237777
5664.00	5.62	0.0237778
5668.00	5.55	0.0237678
5672.00	5.49	0.0237728
5676.00	5.42	0.0237544
5680.00	5.35	0.0237335
5684.00	5.28	0.0237326
5688.00	5.22	0.0237253
5692.00	5.15	0.0237113
5696.00	5.09	0.0236858
5700.00	5.02	0.0236713
5704.00	4.95	0.0236627
5708.00	4.89	0.0236709
5712.00	4.82	0.0236662
5716.00	4.75	0.0236583
5720.00	4.69	0.0236472
5724.00	4.62	0.0236325
5728.00	4.55	0.0236248
5732.00	4.49	0.0236253
5736.00	4.42	0.0236377
5740.00	4.35	0.0236519
5744.00	4.28	0.0236462
5748.00	4.22	0.0236675
5752.00	4.15	0.0236558
5756.00	4.08	0.0236482
5760.00	4.02	0.0236284
5764.00	3.95	0.0236073
5768.00	3.88	0.0235875
5772.00	3.82	0.0235596
5776.00	3.75	0.0235522
5780.00	3.68	0.0235571
5784.00	3.62	0.0235509
5788.00	3.55	0.0235561
5792.00	3.48	0.0235501
5796.00	3.42	0.0235561
5800.00	3.35	0.0235600
5804.00	3.28	0.0235559
5808.00	3.22	0.0235347
5812.00	3.15	0.0235104
5816.00	3.09	0.0234992
5820.00	3.02	0.0234903
5824.00	2.95	0.0234934
5828.00	2.89	0.0235011
5832.00	2.82	0.0234878
5836.00	2.75	0.0234805
5840.00	2.68	0.0234852
5844.00	2.62	0.0234707
5848.00	2.55	0.0234603
5852.00	2.48	0.0234216
5856.00	2.42	0.0234214
5860.00	2.35	0.0234028
5864.00	2.28	0.0234151
5868.00	2.22	0.0234318
5872.00	2.15	0.0234255
5876.00	2.08	0.0234150
5880.00	2.02	0.0234080
5884.00	1.95	0.0234088
5888.00	1.88	0.0234104
5892.00	1.82	0.0234053
5896.00	1.75	0.0233977
5900.00	1.68	0.0233834
5904.00	1.62	0.0233927
5908.00	1.55	0.0233902
5912.00	1.49	0.0233813
5916.00	1.42	0.0233711
5920.00	1.35	0.0233665
5924.00	1.28	0.0233768
5928.00	1.22	0.0233599
5932.00	1.15	0.0233560
5936.00	1.08	0.0233377
5940.00	1.02	0.0233188
5944.00	0.95	0.0233203
5948.00	0.89	0.0233160
5952.00	0.82	0.0233054
5956.00	0.75	0.0232947
5960.00	0.68	0.0232935
5964.00	0.62	0.0232909
5968.00	0.55	0.0232887
5972.00	0.48	0.0233025
5976.00	0.42	0.0233147
5980.00	0.35	0.0233145
5984.00	0.28	0.0233139
5988.00	0.22	0.0233065
5992.00	0.15	0.0232835
5996.00	0.08	0.0232859
5999.90	0.02	0.0232934