File: Differential scanning calorimetry/12OCB Squalane/12OCB SqA wt fraction 150.txt
Filename	12OCBSqA150
Instrument name	DSC2A-00101 (192.168.10.4)
Operator	Yuma
rundate	3/11/2021
Sample name	12OCBSqA150
proceduresegments	Data Off ; Equilibrate 150.00 °C; Isothermal 10.0 min; Equilibrate 100.00 °C; Isothermal 5.0 min; Data On ; Ramp 1.00 °C/min to 0.00 °C; Ramp 5.00 °C/min to 150.00 °C; Data Off ; Isothermal 10.0 min; Modulate Temperature 1.00 °C for 60.0 s; Equilibrate 100.00 °C; Isothermal 10.0 min; Data On ; Ramp 1.00 °C/min to 0.00 °C; Data Off ; Equilibrate 0.00 °C; Modulate Temperature 1.00 °C for 60.0 s; Isothermal 5.0 min; Data On ; Ramp 3.00 °C/min to 100.00 °C; Jump 30.00 °C
[step]
Ramp 1.00 °C/min to 0.00 °C
Time	Temperature	Heat Flow (Normalized)
s	°C	W/g
0.00000	99.85	0.0101372
4.00000	99.85	0.0104011
8.00000	99.82	5.38309e-3
12.0000	99.77	5.51270e-3
16.0000	99.72	0.0165540
20.0000	99.66	0.0240265
24.0000	99.60	0.0279843
28.0000	99.53	0.0312711
32.0000	99.47	0.0321542
36.0000	99.40	0.0332256
40.0000	99.33	0.0340213
44.0000	99.27	0.0347222
48.0000	99.20	0.0353059
52.0000	99.14	0.0357655
56.0000	99.07	0.0361545
60.0000	99.00	0.0364460
64.0000	98.93	0.0366898
68.0000	98.87	0.0368373
72.0000	98.80	0.0369503
76.0000	98.74	0.0370226
80.0000	98.67	0.0371117
84.0000	98.60	0.0371678
88.0000	98.53	0.0372254
92.0000	98.47	0.0372528
96.0000	98.40	0.0372826
100.000	98.34	0.0373117
104.000	98.27	0.0373036
108.000	98.20	0.0373033
112.000	98.13	0.0373489
116.000	98.07	0.0373223
120.000	98.00	0.0373200
124.000	97.93	0.0372696
128.000	97.87	0.0373192
132.000	97.80	0.0373310
136.000	97.74	0.0373465
140.000	97.67	0.0373278
144.000	97.60	0.0372745
148.000	97.54	0.0372671
152.000	97.47	0.0372701
156.000	97.40	0.0372501
160.000	97.34	0.0372955
164.000	97.27	0.0373049
168.000	97.20	0.0372967
172.000	97.13	0.0372579
176.000	97.07	0.0372409
180.000	97.00	0.0372566
184.000	96.94	0.0372732
188.000	96.87	0.0372452
192.000	96.80	0.0372428
196.000	96.74	0.0372557
200.000	96.67	0.0372553
204.000	96.60	0.0372340
208.000	96.54	0.0372520
212.000	96.47	0.0372324
216.000	96.40	0.0372365
220.000	96.34	0.0372607
224.000	96.27	0.0372178
228.000	96.20	0.0372156
232.000	96.14	0.0372049
236.000	96.07	0.0372139
240.000	96.00	0.0372360
244.000	95.94	0.0372234
248.000	95.87	0.0372534
252.000	95.80	0.0372361
256.000	95.73	0.0372212
260.000	95.67	0.0372482
264.000	95.60	0.0372360
268.000	95.54	0.0371882
272.000	95.47	0.0372125
276.000	95.40	0.0371703
280.000	95.34	0.0371875
284.000	95.27	0.0371499
288.000	95.20	0.0371567
292.000	95.14	0.0371553
296.000	95.07	0.0371591
300.000	95.00	0.0371895
304.000	94.93	0.0371882
308.000	94.87	0.0371831
312.000	94.80	0.0371580
316.000	94.74	0.0371666
320.000	94.67	0.0371539
324.000	94.60	0.0371586
328.000	94.54	0.0371505
332.000	94.47	0.0371712
336.000	94.40	0.0371859
340.000	94.34	0.0371531
344.000	94.27	0.0371683
348.000	94.20	0.0371263
352.000	94.14	0.0370994
356.000	94.07	0.0370938
360.000	94.00	0.0371188
364.000	93.94	0.0371199
368.000	93.87	0.0371110
372.000	93.80	0.0371011
376.000	93.74	0.0370887
380.000	93.67	0.0371054
384.000	93.60	0.0371055
388.000	93.54	0.0371150
392.000	93.47	0.0371486
396.000	93.40	0.0371524
400.000	93.34	0.0371084
404.000	93.27	0.0371014
408.000	93.20	0.0370973
412.000	93.14	0.0370852
416.000	93.07	0.0370638
420.000	93.00	0.0370609
424.000	92.93	0.0370863
428.000	92.87	0.0371072
432.000	92.80	0.0371045
436.000	92.74	0.0370905
440.000	92.67	0.0370858
444.000	92.60	0.0370656
448.000	92.54	0.0371116
452.000	92.47	0.0371033
456.000	92.40	0.0371145
460.000	92.34	0.0371195
464.000	92.27	0.0370816
468.000	92.20	0.0370884
472.000	92.13	0.0370734
476.000	92.07	0.0370645
480.000	92.00	0.0370261
484.000	91.94	0.0370073
488.000	91.87	0.0370633
492.000	91.80	0.0370560
496.000	91.74	0.0370277
500.000	91.67	0.0370656
504.000	91.60	0.0370306
508.000	91.54	0.0370408
512.000	91.47	0.0370242
516.000	91.40	0.0370127
520.000	91.33	0.0370215
524.000	91.27	0.0370256
528.000	91.20	0.0369954
532.000	91.14	0.0369928
536.000	91.07	0.0370144
540.000	91.00	0.0370052
544.000	90.94	0.0370000
548.000	90.87	0.0370253
552.000	90.80	0.0370373
556.000	90.74	0.0370392
560.000	90.67	0.0369976
564.000	90.60	0.0370033
568.000	90.54	0.0369877
572.000	90.47	0.0369852
576.000	90.40	0.0370362
580.000	90.33	0.0370526
584.000	90.27	0.0370811
588.000	90.20	0.0370430
592.000	90.13	0.0370141
596.000	90.07	0.0369737
600.000	90.00	0.0370022
604.000	89.93	0.0369885
608.000	89.87	0.0369934
612.000	89.80	0.0369750
616.000	89.73	0.0369586
620.000	89.67	0.0369299
624.000	89.60	0.0369306
628.000	89.54	0.0368963
632.000	89.47	0.0369099
636.000	89.40	0.0369055
640.000	89.34	0.0369386
644.000	89.27	0.0369714
648.000	89.20	0.0369729
652.000	89.14	0.0369551
656.000	89.07	0.0369667
660.000	89.00	0.0369678
664.000	88.94	0.0369780
668.000	88.87	0.0369615
672.000	88.80	0.0369527
676.000	88.74	0.0369538
680.000	88.67	0.0369558
684.000	88.60	0.0369701
688.000	88.54	0.0369697
692.000	88.47	0.0369802
696.000	88.40	0.0369830
700.000	88.33	0.0369944
704.000	88.27	0.0369619
708.000	88.20	0.0369632
712.000	88.13	0.0369217
716.000	88.07	0.0369426
720.000	88.00	0.0369349
724.000	87.94	0.0369565
728.000	87.87	0.0369390
732.000	87.80	0.0369228
736.000	87.73	0.0369214
740.000	87.67	0.0369490
744.000	87.60	0.0369325
748.000	87.54	0.0369211
752.000	87.47	0.0369323
756.000	87.40	0.0369149
760.000	87.34	0.0369554
764.000	87.27	0.0369707
768.000	87.20	0.0369516
772.000	87.14	0.0369372
776.000	87.07	0.0369681
780.000	87.00	0.0369513
784.000	86.94	0.0370005
788.000	86.87	0.0369850
792.000	86.80	0.0369780
796.000	86.74	0.0369680
800.000	86.67	0.0369404
804.000	86.60	0.0369808
808.000	86.54	0.0369976
812.000	86.47	0.0370196
816.000	86.40	0.0370031
820.000	86.33	0.0369734
824.000	86.27	0.0369841
828.000	86.20	0.0370114
832.000	86.14	0.0369945
836.000	86.07	0.0369891
840.000	86.00	0.0369810
844.000	85.93	0.0369885
848.000	85.87	0.0369956
852.000	85.80	0.0369862
856.000	85.74	0.0369734
860.000	85.67	0.0370023
864.000	85.60	0.0369946
868.000	85.54	0.0369693
872.000	85.47	0.0369496
876.000	85.40	0.0369506
880.000	85.34	0.0369179
884.000	85.27	0.0369582
888.000	85.20	0.0369758
892.000	85.14	0.0369702
896.000	85.07	0.0369958
900.000	85.00	0.0370264
904.000	84.94	0.0370015
908.000	84.87	0.0370029
912.000	84.80	0.0370016
916.000	84.74	0.0370451
920.000	84.67	0.0370679
924.000	84.60	0.0370365
928.000	84.54	0.0370342
932.000	84.47	0.0370130
936.000	84.40	0.0370246
940.000	84.34	0.0370548
944.000	84.27	0.0370403
948.000	84.20	0.0370181
952.000	84.14	0.0370271
956.000	84.07	0.0370285
960.000	84.00	0.0370130
964.000	83.93	0.0370646
968.000	83.87	0.0370729
972.000	83.80	0.0370810
976.000	83.73	0.0370542
980.000	83.67	0.0370083
984.000	83.60	0.0370180
988.000	83.53	0.0370296
992.000	83.47	0.0370476
996.000	83.40	0.0370489
1000.00	83.33	0.0370448
1004.00	83.27	0.0370526
1008.00	83.20	0.0370405
1012.00	83.14	0.0370741
1016.00	83.07	0.0370823
1020.00	83.00	0.0370820
1024.00	82.94	0.0370887
1028.00	82.87	0.0370997
1032.00	82.80	0.0370932
1036.00	82.74	0.0371203
1040.00	82.67	0.0371511
1044.00	82.60	0.0371876
1048.00	82.54	0.0371756
1052.00	82.47	0.0371759
1056.00	82.40	0.0371823
1060.00	82.34	0.0371488
1064.00	82.27	0.0371311
1068.00	82.20	0.0372007
1072.00	82.14	0.0372230
1076.00	82.07	0.0372764
1080.00	82.00	0.0373142
1084.00	81.94	0.0372672
1088.00	81.87	0.0372554
1092.00	81.80	0.0372619
1096.00	81.74	0.0372822
1100.00	81.67	0.0372786
1104.00	81.60	0.0372888
1108.00	81.53	0.0373285
1112.00	81.47	0.0373522
1116.00	81.40	0.0373605
1120.00	81.34	0.0373743
1124.00	81.27	0.0374019
1128.00	81.20	0.0373776
1132.00	81.13	0.0374289
1136.00	81.07	0.0373937
1140.00	81.00	0.0373805
1144.00	80.93	0.0373941
1148.00	80.87	0.0373888
1152.00	80.80	0.0373662
1156.00	80.74	0.0373752
1160.00	80.67	0.0373916
1164.00	80.60	0.0374150
1168.00	80.54	0.0374134
1172.00	80.47	0.0374263
1176.00	80.40	0.0374141
1180.00	80.34	0.0374194
1184.00	80.27	0.0374737
1188.00	80.20	0.0374828
1192.00	80.14	0.0375255
1196.00	80.07	0.0375573
1200.00	80.00	0.0375511
1204.00	79.94	0.0375840
1208.00	79.87	0.0375937
1212.00	79.80	0.0375808
1216.00	79.74	0.0376166
1220.00	79.67	0.0376066
1224.00	79.60	0.0375761
1228.00	79.54	0.0376525
1232.00	79.47	0.0376427
1236.00	79.40	0.0376814
1240.00	79.34	0.0377232
1244.00	79.27	0.0377299
1248.00	79.20	0.0377350
1252.00	79.14	0.0377875
1256.00	79.07	0.0378156
1260.00	79.00	0.0378168
1264.00	78.94	0.0378100
1268.00	78.87	0.0378278
1272.00	78.80	0.0378687
1276.00	78.74	0.0378904
1280.00	78.67	0.0378930
1284.00	78.60	0.0379298
1288.00	78.54	0.0379026
1292.00	78.47	0.0379026
1296.00	78.40	0.0379202
1300.00	78.34	0.0379526
1304.00	78.27	0.0380026
1308.00	78.20	0.0380299
1312.00	78.14	0.0380455
1316.00	78.07	0.0380351
1320.00	78.00	0.0380468
1324.00	77.94	0.0381274
1328.00	77.87	0.0383063
1332.00	77.80	0.0385889
1336.00	77.74	0.0390070
1340.00	77.67	0.0394530
1344.00	77.60	0.0400217
1348.00	77.54	0.0406296
1352.00	77.47	0.0412711
1356.00	77.41	0.0435443
1360.00	77.35	0.0549404
1364.00	77.29	0.0689085
1368.00	77.23	0.0820141
1372.00	77.16	0.0902542
1376.00	77.10	0.0938824
1380.00	77.03	0.0942633
1384.00	76.96	0.0939276
1388.00	76.89	0.0922739
1392.00	76.83	0.0898403
1396.00	76.76	0.0871142
1400.00	76.69	0.0848083
1404.00	76.62	0.0831056
1408.00	76.56	0.0812744
1412.00	76.49	0.0794341
1416.00	76.42	0.0774499
1420.00	76.35	0.0755602
1424.00	76.28	0.0737781
1428.00	76.22	0.0721311
1432.00	76.15	0.0709131
1436.00	76.08	0.0699839
1440.00	76.02	0.0692536
1444.00	75.95	0.0686360
1448.00	75.88	0.0681539
1452.00	75.82	0.0677164
1456.00	75.75	0.0672136
1460.00	75.68	0.0667949
1464.00	75.62	0.0663520
1468.00	75.55	0.0659050
1472.00	75.48	0.0654575
1476.00	75.42	0.0650328
1480.00	75.35	0.0645994
1484.00	75.28	0.0641867
1488.00	75.21	0.0638244
1492.00	75.15	0.0634688
1496.00	75.08	0.0630990
1500.00	75.01	0.0627414
1504.00	74.95	0.0623913
1508.00	74.88	0.0620470
1512.00	74.81	0.0616674
1516.00	74.75	0.0613072
1520.00	74.68	0.0609698
1524.00	74.61	0.0606341
1528.00	74.55	0.0603084
1532.00	74.48	0.0599711
1536.00	74.41	0.0596319
1540.00	74.35	0.0592879
1544.00	74.28	0.0589751
1548.00	74.21	0.0586879
1552.00	74.15	0.0583539
1556.00	74.08	0.0580504
1560.00	74.01	0.0577527
1564.00	73.95	0.0574580
1568.00	73.88	0.0571749
1572.00	73.81	0.0568305
1576.00	73.74	0.0564989
1580.00	73.68	0.0561813
1584.00	73.61	0.0558634
1588.00	73.54	0.0556345
1592.00	73.48	0.0553514
1596.00	73.41	0.0551109
1600.00	73.34	0.0548564
1604.00	73.28	0.0546158
1608.00	73.21	0.0543643
1612.00	73.14	0.0540889
1616.00	73.08	0.0538277
1620.00	73.01	0.0536072
1624.00	72.94	0.0533853
1628.00	72.88	0.0531726
1632.00	72.81	0.0529635
1636.00	72.74	0.0527271
1640.00	72.68	0.0525203
1644.00	72.61	0.0523269
1648.00	72.54	0.0521047
1652.00	72.48	0.0518971
1656.00	72.41	0.0516510
1660.00	72.34	0.0514577
1664.00	72.28	0.0512833
1668.00	72.21	0.0510913
1672.00	72.14	0.0509399
1676.00	72.07	0.0507362
1680.00	72.01	0.0505609
1684.00	71.94	0.0503485
1688.00	71.88	0.0501470
1692.00	71.81	0.0499899
1696.00	71.74	0.0498130
1700.00	71.67	0.0496241
1704.00	71.61	0.0494314
1708.00	71.54	0.0492413
1712.00	71.47	0.0490797
1716.00	71.41	0.0489032
1720.00	71.34	0.0487059
1724.00	71.27	0.0485472
1728.00	71.21	0.0483590
1732.00	71.14	0.0481683
1736.00	71.07	0.0480401
1740.00	71.01	0.0478791
1744.00	70.94	0.0476612
1748.00	70.87	0.0475328
1752.00	70.81	0.0473707
1756.00	70.74	0.0472257
1760.00	70.67	0.0470937
1764.00	70.61	0.0469197
1768.00	70.54	0.0467597
1772.00	70.47	0.0466141
1776.00	70.41	0.0464785
1780.00	70.34	0.0463390
1784.00	70.27	0.0461697
1788.00	70.21	0.0460112
1792.00	70.14	0.0458813
1796.00	70.07	0.0457048
1800.00	70.01	0.0456059
1804.00	69.94	0.0454758
1808.00	69.87	0.0453333
1812.00	69.81	0.0451832
1816.00	69.74	0.0450109
1820.00	69.67	0.0449088
1824.00	69.61	0.0447871
1828.00	69.54	0.0446591
1832.00	69.47	0.0445580
1836.00	69.40	0.0444509
1840.00	69.34	0.0443364
1844.00	69.27	0.0442229
1848.00	69.21	0.0440898
1852.00	69.14	0.0439436
1856.00	69.07	0.0437936
1860.00	69.01	0.0437061
1864.00	68.94	0.0435674
1868.00	68.87	0.0434360
1872.00	68.81	0.0432914
1876.00	68.74	0.0432386
1880.00	68.67	0.0430711
1884.00	68.60	0.0429321
1888.00	68.54	0.0428769
1892.00	68.47	0.0427901
1896.00	68.40	0.0427283
1900.00	68.34	0.0425797
1904.00	68.27	0.0424770
1908.00	68.20	0.0423873
1912.00	68.14	0.0422896
1916.00	68.07	0.0421896
1920.00	68.00	0.0420925
1924.00	67.94	0.0420143
1928.00	67.87	0.0418929
1932.00	67.80	0.0417959
1936.00	67.74	0.0416866
1940.00	67.67	0.0415803
1944.00	67.60	0.0414838
1948.00	67.54	0.0413719
1952.00	67.47	0.0413244
1956.00	67.40	0.0412272
1960.00	67.34	0.0411307
1964.00	67.27	0.0410362
1968.00	67.20	0.0409409
1972.00	67.14	0.0408494
1976.00	67.07	0.0407397
1980.00	67.00	0.0406578
1984.00	66.94	0.0405856
1988.00	66.87	0.0405456
1992.00	66.80	0.0404676
1996.00	66.74	0.0404100
2000.00	66.67	0.0402969
2004.00	66.60	0.0402188
2008.00	66.54	0.0401728
2012.00	66.47	0.0400434
2016.00	66.40	0.0399801
2020.00	66.34	0.0398742
2024.00	66.27	0.0398045
2028.00	66.20	0.0397078
2032.00	66.14	0.0396188
2036.00	66.07	0.0395677
2040.00	66.00	0.0395098
2044.00	65.94	0.0394307
2048.00	65.87	0.0393400
2052.00	65.80	0.0392658
2056.00	65.74	0.0392124
2060.00	65.67	0.0391389
2064.00	65.60	0.0390481
2068.00	65.54	0.0389402
2072.00	65.47	0.0388824
2076.00	65.40	0.0388211
2080.00	65.34	0.0387634
2084.00	65.27	0.0386871
2088.00	65.20	0.0386267
2092.00	65.14	0.0385616
2096.00	65.07	0.0385151
2100.00	65.00	0.0384416
2104.00	64.94	0.0383838
2108.00	64.87	0.0382924
2112.00	64.80	0.0382343
2116.00	64.74	0.0381030
2120.00	64.67	0.0380469
2124.00	64.60	0.0380153
2128.00	64.54	0.0379807
2132.00	64.47	0.0378874
2136.00	64.40	0.0378100
2140.00	64.34	0.0377585
2144.00	64.27	0.0377046
2148.00	64.20	0.0376835
2152.00	64.14	0.0376304
2156.00	64.07	0.0375730
2160.00	64.00	0.0374995
2164.00	63.94	0.0374522
2168.00	63.87	0.0374122
2172.00	63.80	0.0373465
2176.00	63.74	0.0373302
2180.00	63.67	0.0373164
2184.00	63.60	0.0373111
2188.00	63.54	0.0372895
2192.00	63.47	0.0373289
2196.00	63.40	0.0373221
2200.00	63.34	0.0373601
2204.00	63.27	0.0373288
2208.00	63.20	0.0372836
2212.00	63.14	0.0372297
2216.00	63.07	0.0371804
2220.00	63.00	0.0371277
2224.00	62.94	0.0371119
2228.00	62.87	0.0370841
2232.00	62.80	0.0370755
2236.00	62.74	0.0370480
2240.00	62.67	0.0369850
2244.00	62.60	0.0369888
2248.00	62.53	0.0369284
2252.00	62.47	0.0368880
2256.00	62.40	0.0368644
2260.00	62.33	0.0368479
2264.00	62.27	0.0368422
2268.00	62.20	0.0367935
2272.00	62.14	0.0367550
2276.00	62.07	0.0367099
2280.00	62.00	0.0366960
2284.00	61.94	0.0366870
2288.00	61.87	0.0366320
2292.00	61.80	0.0365800
2296.00	61.73	0.0365705
2300.00	61.67	0.0365464
2304.00	61.60	0.0365141
2308.00	61.54	0.0364761
2312.00	61.47	0.0364080
2316.00	61.40	0.0363670
2320.00	61.34	0.0362937
2324.00	61.27	0.0362763
2328.00	61.20	0.0362656
2332.00	61.13	0.0362525
2336.00	61.07	0.0362545
2340.00	61.00	0.0362221
2344.00	60.94	0.0361625
2348.00	60.87	0.0361611
2352.00	60.80	0.0361201
2356.00	60.74	0.0361077
2360.00	60.67	0.0360375
2364.00	60.60	0.0360264
2368.00	60.53	0.0359910
2372.00	60.47	0.0359979
2376.00	60.40	0.0359596
2380.00	60.33	0.0359322
2384.00	60.27	0.0359159
2388.00	60.20	0.0358749
2392.00	60.13	0.0358686
2396.00	60.07	0.0358823
2400.00	60.00	0.0358333
2404.00	59.94	0.0358370
2408.00	59.87	0.0357752
2412.00	59.80	0.0357592
2416.00	59.73	0.0357333
2420.00	59.67	0.0357237
2424.00	59.60	0.0357105
2428.00	59.54	0.0356971
2432.00	59.47	0.0357073
2436.00	59.40	0.0356875
2440.00	59.33	0.0356648
2444.00	59.27	0.0355930
2448.00	59.20	0.0356249
2452.00	59.13	0.0355756
2456.00	59.07	0.0355982
2460.00	59.00	0.0355526
2464.00	58.93	0.0355359
2468.00	58.87	0.0355421
2472.00	58.80	0.0355104
2476.00	58.73	0.0355362
2480.00	58.67	0.0354988
2484.00	58.60	0.0354812
2488.00	58.53	0.0354879
2492.00	58.47	0.0354443
2496.00	58.40	0.0354503
2500.00	58.33	0.0354443
2504.00	58.27	0.0354123
2508.00	58.20	0.0353948
2512.00	58.13	0.0353566
2516.00	58.07	0.0353560
2520.00	58.00	0.0353722
2524.00	57.93	0.0353122
2528.00	57.87	0.0353297
2532.00	57.80	0.0353107
2536.00	57.73	0.0352874
2540.00	57.67	0.0352453
2544.00	57.60	0.0352212
2548.00	57.54	0.0351951
2552.00	57.47	0.0352073
2556.00	57.40	0.0351925
2560.00	57.33	0.0351689
2564.00	57.27	0.0351414
2568.00	57.20	0.0351654
2572.00	57.13	0.0351619
2576.00	57.07	0.0351481
2580.00	57.00	0.0351465
2584.00	56.93	0.0351268
2588.00	56.87	0.0351088
2592.00	56.80	0.0351177
2596.00	56.73	0.0351039
2600.00	56.67	0.0350493
2604.00	56.60	0.0350336
2608.00	56.53	0.0350077
2612.00	56.47	0.0350055
2616.00	56.40	0.0349980
2620.00	56.33	0.0349744
2624.00	56.27	0.0349833
2628.00	56.20	0.0349757
2632.00	56.13	0.0349451
2636.00	56.07	0.0349877
2640.00	56.00	0.0349352
2644.00	55.93	0.0349181
2648.00	55.87	0.0349017
2652.00	55.80	0.0349104
2656.00	55.73	0.0348651
2660.00	55.67	0.0348537
2664.00	55.60	0.0348449
2668.00	55.53	0.0348468
2672.00	55.47	0.0348393
2676.00	55.40	0.0348058
2680.00	55.33	0.0348058
2684.00	55.27	0.0347930
2688.00	55.20	0.0347769
2692.00	55.13	0.0347788
2696.00	55.07	0.0347642
2700.00	55.00	0.0347384
2704.00	54.93	0.0347423
2708.00	54.87	0.0347562
2712.00	54.80	0.0347666
2716.00	54.73	0.0347735
2720.00	54.67	0.0347340
2724.00	54.60	0.0347427
2728.00	54.53	0.0346881
2732.00	54.47	0.0346796
2736.00	54.40	0.0346878
2740.00	54.33	0.0347220
2744.00	54.27	0.0347078
2748.00	54.20	0.0346508
2752.00	54.13	0.0346589
2756.00	54.07	0.0346715
2760.00	54.00	0.0346540
2764.00	53.93	0.0346276
2768.00	53.87	0.0346592
2772.00	53.80	0.0346765
2776.00	53.73	0.0346830
2780.00	53.67	0.0346179
2784.00	53.60	0.0346250
2788.00	53.53	0.0346193
2792.00	53.47	0.0346174
2796.00	53.40	0.0345889
2800.00	53.33	0.0345747
2804.00	53.27	0.0346026
2808.00	53.20	0.0345720
2812.00	53.13	0.0345501
2816.00	53.07	0.0345596
2820.00	53.00	0.0345050
2824.00	52.93	0.0344863
2828.00	52.87	0.0344912
2832.00	52.80	0.0344762
2836.00	52.73	0.0344433
2840.00	52.67	0.0344462
2844.00	52.60	0.0344320
2848.00	52.53	0.0344398
2852.00	52.47	0.0344444
2856.00	52.40	0.0344076
2860.00	52.33	0.0343902
2864.00	52.27	0.0344105
2868.00	52.20	0.0344251
2872.00	52.13	0.0344453
2876.00	52.07	0.0344179
2880.00	52.00	0.0344068
2884.00	51.93	0.0344104
2888.00	51.87	0.0343466
2892.00	51.80	0.0343368
2896.00	51.73	0.0342772
2900.00	51.67	0.0342715
2904.00	51.60	0.0342971
2908.00	51.53	0.0342740
2912.00	51.47	0.0342621
2916.00	51.40	0.0342363
2920.00	51.33	0.0342524
2924.00	51.27	0.0342437
2928.00	51.20	0.0342217
2932.00	51.13	0.0342183
2936.00	51.07	0.0342207
2940.00	51.00	0.0342822
2944.00	50.93	0.0342410
2948.00	50.87	0.0342300
2952.00	50.80	0.0341810
2956.00	50.73	0.0341384
2960.00	50.67	0.0341134
2964.00	50.60	0.0341111
2968.00	50.53	0.0341224
2972.00	50.47	0.0341251
2976.00	50.40	0.0341318
2980.00	50.33	0.0341235
2984.00	50.27	0.0341379
2988.00	50.20	0.0340953
2992.00	50.13	0.0340776
2996.00	50.07	0.0340495
3000.00	50.00	0.0340646
3004.00	49.93	0.0340541
3008.00	49.87	0.0340526
3012.00	49.80	0.0340116
3016.00	49.73	0.0340167
3020.00	49.67	0.0340100
3024.00	49.60	0.0340135
3028.00	49.53	0.0339651
3032.00	49.47	0.0339621
3036.00	49.40	0.0339771
3040.00	49.33	0.0339996
3044.00	49.27	0.0339925
3048.00	49.20	0.0340283
3052.00	49.13	0.0340013
3056.00	49.07	0.0339843
3060.00	49.00	0.0340064
3064.00	48.93	0.0339870
3068.00	48.87	0.0339738
3072.00	48.80	0.0339915
3076.00	48.73	0.0339982
3080.00	48.66	0.0339596
3084.00	48.60	0.0339683
3088.00	48.53	0.0339941
3092.00	48.47	0.0340110
3096.00	48.40	0.0339643
3100.00	48.33	0.0339652
3104.00	48.27	0.0339247
3108.00	48.20	0.0338430
3112.00	48.13	0.0338419
3116.00	48.07	0.0334771
3120.00	48.00	0.0337862
3124.00	47.95	0.0295217
3128.00	47.99	0.0379891
3132.00	48.24	0.320173
3136.00	48.78	1.59447
3140.00	48.90	2.33054
3144.00	48.84	2.39691
3148.00	48.73	2.32521
3152.00	48.65	2.23253
3156.00	48.66	2.30499
3160.00	48.69	2.51012
3164.00	48.56	2.85306
3168.00	47.96	1.88308
3172.00	47.55	1.05419
3176.00	47.29	0.594710
3180.00	47.12	0.341501
3184.00	47.00	0.202773
3188.00	46.90	0.127001
3192.00	46.82	0.0851537
3196.00	46.74	0.0618417
3200.00	46.67	0.0501742
3204.00	46.60	0.0430069
3208.00	46.54	0.0396680
3212.00	46.47	0.0380527
3216.00	46.40	0.0371341
3220.00	46.33	0.0362303
3224.00	46.27	0.0354423
3228.00	46.20	0.0346879
3232.00	46.13	0.0341862
3236.00	46.06	0.0337218
3240.00	46.00	0.0333256
3244.00	45.93	0.0329603
3248.00	45.86	0.0326815
3252.00	45.80	0.0324868
3256.00	45.73	0.0322849
3260.00	45.66	0.0320978
3264.00	45.60	0.0319071
3268.00	45.53	0.0317656
3272.00	45.46	0.0316520
3276.00	45.40	0.0315380
3280.00	45.33	0.0314183
3284.00	45.26	0.0313055
3288.00	45.20	0.0312171
3292.00	45.13	0.0311583
3296.00	45.06	0.0310241
3300.00	45.00	0.0309920
3304.00	44.93	0.0308955
3308.00	44.87	0.0308165
3312.00	44.80	0.0307199
3316.00	44.73	0.0306703
3320.00	44.66	0.0306384
3324.00	44.60	0.0306026
3328.00	44.53	0.0305778
3332.00	44.46	0.0305295
3336.00	44.40	0.0304909
3340.00	44.33	0.0304110
3344.00	44.26	0.0303918
3348.00	44.20	0.0303349
3352.00	44.13	0.0303114
3356.00	44.06	0.0302336
3360.00	44.00	0.0302103
3364.00	43.93	0.0301588
3368.00	43.86	0.0300793
3372.00	43.80	0.0300552
3376.00	43.73	0.0300448
3380.00	43.66	0.0300285
3384.00	43.60	0.0299977
3388.00	43.53	0.0299558
3392.00	43.46	0.0299332
3396.00	43.40	0.0298807
3400.00	43.33	0.0298729
3404.00	43.26	0.0298412
3408.00	43.20	0.0297738
3412.00	43.13	0.0297424
3416.00	43.06	0.0296921
3420.00	43.00	0.0296903
3424.00	42.93	0.0296614
3428.00	42.86	0.0296261
3432.00	42.80	0.0295634
3436.00	42.73	0.0295367
3440.00	42.66	0.0295151
3444.00	42.60	0.0294619
3448.00	42.53	0.0294929
3452.00	42.46	0.0294559
3456.00	42.40	0.0294312
3460.00	42.33	0.0293888
3464.00	42.26	0.0293481
3468.00	42.20	0.0293389
3472.00	42.13	0.0292961
3476.00	42.06	0.0292553
3480.00	42.00	0.0292050
3484.00	41.93	0.0291975
3488.00	41.86	0.0291627
3492.00	41.80	0.0291666
3496.00	41.73	0.0291544
3500.00	41.66	0.0291201
3504.00	41.60	0.0291237
3508.00	41.53	0.0290664
3512.00	41.46	0.0290792
3516.00	41.40	0.0290590
3520.00	41.33	0.0290557
3524.00	41.26	0.0289793
3528.00	41.20	0.0290033
3532.00	41.13	0.0289355
3536.00	41.06	0.0288907
3540.00	41.00	0.0288556
3544.00	40.93	0.0288873
3548.00	40.86	0.0288513
3552.00	40.80	0.0288306
3556.00	40.73	0.0287773
3560.00	40.66	0.0288159
3564.00	40.60	0.0287994
3568.00	40.53	0.0287881
3572.00	40.46	0.0287981
3576.00	40.40	0.0287764
3580.00	40.33	0.0287165
3584.00	40.26	0.0286972
3588.00	40.20	0.0287323
3592.00	40.13	0.0286769
3596.00	40.06	0.0286720
3600.00	40.00	0.0286434
3604.00	39.93	0.0286189
3608.00	39.86	0.0286592
3612.00	39.80	0.0286307
3616.00	39.73	0.0285946
3620.00	39.66	0.0285403
3624.00	39.60	0.0285264
3628.00	39.53	0.0284920
3632.00	39.46	0.0284421
3636.00	39.40	0.0284532
3640.00	39.33	0.0284548
3644.00	39.26	0.0284307
3648.00	39.20	0.0284310
3652.00	39.13	0.0284204
3656.00	39.06	0.0284093
3660.00	39.00	0.0283771
3664.00	38.93	0.0283515
3668.00	38.86	0.0283116
3672.00	38.80	0.0283185
3676.00	38.73	0.0283337
3680.00	38.66	0.0283172
3684.00	38.60	0.0282717
3688.00	38.53	0.0282662
3692.00	38.46	0.0282607
3696.00	38.40	0.0282100
3700.00	38.33	0.0281964
3704.00	38.26	0.0281679
3708.00	38.20	0.0281361
3712.00	38.13	0.0281223
3716.00	38.06	0.0281000
3720.00	38.00	0.0280780
3724.00	37.93	0.0280516
3728.00	37.86	0.0280239
3732.00	37.80	0.0279716
3736.00	37.73	0.0279717
3740.00	37.66	0.0279700
3744.00	37.60	0.0279359
3748.00	37.53	0.0279184
3752.00	37.46	0.0278815
3756.00	37.40	0.0278412
3760.00	37.33	0.0278341
3764.00	37.26	0.0278277
3768.00	37.20	0.0278111
3772.00	37.13	0.0278102
3776.00	37.06	0.0278348
3780.00	36.99	0.0278017
3784.00	36.93	0.0277835
3788.00	36.86	0.0277667
3792.00	36.79	0.0277681
3796.00	36.73	0.0277383
3800.00	36.66	0.0277091
3804.00	36.60	0.0276518
3808.00	36.53	0.0276581
3812.00	36.46	0.0276256
3816.00	36.39	0.0276394
3820.00	36.33	0.0276133
3824.00	36.26	0.0276112
3828.00	36.19	0.0276282
3832.00	36.13	0.0275825
3836.00	36.06	0.0275725
3840.00	36.00	0.0275572
3844.00	35.93	0.0275885
3848.00	35.86	0.0275302
3852.00	35.80	0.0274648
3856.00	35.73	0.0274705
3860.00	35.66	0.0274718
3864.00	35.60	0.0274806
3868.00	35.53	0.0274456
3872.00	35.46	0.0273911
3876.00	35.39	0.0274480
3880.00	35.33	0.0274006
3884.00	35.26	0.0274049
3888.00	35.19	0.0273693
3892.00	35.13	0.0273662
3896.00	35.06	0.0273513
3900.00	34.99	0.0273516
3904.00	34.93	0.0273117
3908.00	34.86	0.0272852
3912.00	34.80	0.0272475
3916.00	34.73	0.0272668
3920.00	34.66	0.0272301
3924.00	34.60	0.0272294
3928.00	34.53	0.0272379
3932.00	34.46	0.0272282
3936.00	34.40	0.0271803
3940.00	34.33	0.0271885
3944.00	34.26	0.0271731
3948.00	34.19	0.0271329
3952.00	34.13	0.0271533
3956.00	34.06	0.0271703
3960.00	33.99	0.0271263
3964.00	33.93	0.0271317
3968.00	33.86	0.0271348
3972.00	33.80	0.0271057
3976.00	33.73	0.0270442
3980.00	33.66	0.0270465
3984.00	33.59	0.0270344
3988.00	33.53	0.0270013
3992.00	33.46	0.0270118
3996.00	33.39	0.0269445
4000.00	33.33	0.0269362
4004.00	33.26	0.0269301
4008.00	33.19	0.0269119
4012.00	33.13	0.0269389
4016.00	33.06	0.0269609
4020.00	33.00	0.0269216
4024.00	32.93	0.0268753
4028.00	32.86	0.0268927
4032.00	32.79	0.0268761
4036.00	32.73	0.0268880
4040.00	32.66	0.0268617
4044.00	32.60	0.0268652
4048.00	32.53	0.0268430
4052.00	32.46	0.0268151
4056.00	32.39	0.0268181
4060.00	32.33	0.0268156
4064.00	32.26	0.0268073
4068.00	32.20	0.0268126
4072.00	32.13	0.0268148
4076.00	32.06	0.0267557
4080.00	32.00	0.0267289
4084.00	31.93	0.0267394
4088.00	31.86	0.0267414
4092.00	31.79	0.0267614
4096.00	31.73	0.0267351
4100.00	31.66	0.0267178
4104.00	31.59	0.0266633
4108.00	31.53	0.0266585
4112.00	31.46	0.0266492
4116.00	31.39	0.0266717
4120.00	31.33	0.0266615
4124.00	31.26	0.0266382
4128.00	31.19	0.0266384
4132.00	31.13	0.0266213
4136.00	31.06	0.0266247
4140.00	30.99	0.0266171
4144.00	30.93	0.0265677
4148.00	30.86	0.0265823
4152.00	30.79	0.0265770
4156.00	30.73	0.0265640
4160.00	30.66	0.0265658
4164.00	30.59	0.0265135
4168.00	30.53	0.0265201
4172.00	30.46	0.0264671
4176.00	30.39	0.0265095
4180.00	30.33	0.0264696
4184.00	30.26	0.0264731
4188.00	30.19	0.0264903
4192.00	30.13	0.0264688
4196.00	30.06	0.0264418
4200.00	29.99	0.0264335
4204.00	29.93	0.0264453
4208.00	29.86	0.0264546
4212.00	29.79	0.0264302
4216.00	29.73	0.0264084
4220.00	29.66	0.0264236
4224.00	29.59	0.0264088
4228.00	29.53	0.0264591
4232.00	29.46	0.0264182
4236.00	29.39	0.0264096
4240.00	29.33	0.0263846
4244.00	29.26	0.0264041
4248.00	29.19	0.0263804
4252.00	29.13	0.0263753
4256.00	29.06	0.0263616
4260.00	28.99	0.0263706
4264.00	28.93	0.0263865
4268.00	28.86	0.0263003
4272.00	28.79	0.0263340
4276.00	28.73	0.0263511
4280.00	28.66	0.0264092
4284.00	28.59	0.0264390
4288.00	28.53	0.0265115
4292.00	28.46	0.0265221
4296.00	28.39	0.0267372
4300.00	28.33	0.0268681
4304.00	28.26	0.0269332
4308.00	28.20	0.0268694
4312.00	28.13	0.0267969
4316.00	28.06	0.0267062
4320.00	27.99	0.0266152
4324.00	27.93	0.0265838
4328.00	27.86	0.0265424
4332.00	27.79	0.0264809
4336.00	27.73	0.0264338
4340.00	27.66	0.0263895
4344.00	27.59	0.0263610
4348.00	27.53	0.0263171
4352.00	27.46	0.0263481
4356.00	27.39	0.0263634
4360.00	27.33	0.0263015
4364.00	27.26	0.0262938
4368.00	27.19	0.0262222
4372.00	27.13	0.0262387
4376.00	27.06	0.0262323
4380.00	26.99	0.0262461
4384.00	26.93	0.0262029
4388.00	26.86	0.0261760
4392.00	26.79	0.0261392
4396.00	26.73	0.0261281
4400.00	26.66	0.0261017
4404.00	26.59	0.0261189
4408.00	26.53	0.0260989
4412.00	26.46	0.0260614
4416.00	26.39	0.0260703
4420.00	26.33	0.0260535
4424.00	26.26	0.0260150
4428.00	26.19	0.0260161
4432.00	26.13	0.0259916
4436.00	26.06	0.0260114
4440.00	25.99	0.0259732
4444.00	25.93	0.0259542
4448.00	25.86	0.0259533
4452.00	25.79	0.0259086
4456.00	25.73	0.0259148
4460.00	25.66	0.0258602
4464.00	25.59	0.0258557
4468.00	25.53	0.0258061
4472.00	25.46	0.0258212
4476.00	25.39	0.0259624
4480.00	25.33	0.0260936
4484.00	25.26	0.0261350
4488.00	25.19	0.0260412
4492.00	25.13	0.0263159
4496.00	25.06	0.0263299
4500.00	24.99	0.0263103
4504.00	24.93	0.0262594
4508.00	24.86	0.0260950
4512.00	24.79	0.0259622
4516.00	24.73	0.0258453
4520.00	24.66	0.0257857
4524.00	24.59	0.0256811
4528.00	24.53	0.0256580
4532.00	24.46	0.0255699
4536.00	24.39	0.0255629
4540.00	24.33	0.0255134
4544.00	24.26	0.0254798
4548.00	24.19	0.0254421
4552.00	24.13	0.0254199
4556.00	24.06	0.0253740
4560.00	23.99	0.0253801
4564.00	23.93	0.0253469
4568.00	23.86	0.0253172
4572.00	23.79	0.0253294
4576.00	23.73	0.0253126
4580.00	23.66	0.0253039
4584.00	23.59	0.0253207
4588.00	23.53	0.0252782
4592.00	23.46	0.0252511
4596.00	23.39	0.0252427
4600.00	23.33	0.0252496
4604.00	23.26	0.0252659
4608.00	23.19	0.0252428
4612.00	23.13	0.0252487
4616.00	23.06	0.0252263
4620.00	22.99	0.0251751
4624.00	22.93	0.0251761
4628.00	22.86	0.0251684
4632.00	22.79	0.0251475
4636.00	22.73	0.0251460
4640.00	22.66	0.0251425
4644.00	22.59	0.0251251
4648.00	22.53	0.0251316
4652.00	22.46	0.0251168
4656.00	22.39	0.0250837
4660.00	22.33	0.0250753
4664.00	22.26	0.0250846
4668.00	22.19	0.0250950
4672.00	22.13	0.0250819
4676.00	22.06	0.0250766
4680.00	21.99	0.0250714
4684.00	21.93	0.0250464
4688.00	21.86	0.0249965
4692.00	21.79	0.0249803
4696.00	21.72	0.0249531
4700.00	21.66	0.0249346
4704.00	21.59	0.0249063
4708.00	21.52	0.0248875
4712.00	21.46	0.0248869
4716.00	21.39	0.0248898
4720.00	21.32	0.0248738
4724.00	21.26	0.0248245
4728.00	21.19	0.0248442
4732.00	21.13	0.0248115
4736.00	21.06	0.0247726
4740.00	20.99	0.0247557
4744.00	20.93	0.0247412
4748.00	20.86	0.0247151
4752.00	20.79	0.0247412
4756.00	20.73	0.0247420
4760.00	20.66	0.0247348
4764.00	20.59	0.0247493
4768.00	20.53	0.0247503
4772.00	20.46	0.0247586
4776.00	20.39	0.0247095
4780.00	20.33	0.0246988
4784.00	20.26	0.0246789
4788.00	20.19	0.0246741
4792.00	20.13	0.0246958
4796.00	20.06	0.0246815
4800.00	19.99	0.0246909
4804.00	19.93	0.0247103
4808.00	19.86	0.0247206
4812.00	19.79	0.0247131
4816.00	19.73	0.0246948
4820.00	19.66	0.0246548
4824.00	19.59	0.0246163
4828.00	19.53	0.0245913
4832.00	19.46	0.0245852
4836.00	19.39	0.0245760
4840.00	19.32	0.0245881
4844.00	19.26	0.0245840
4848.00	19.19	0.0246097
4852.00	19.12	0.0246088
4856.00	19.06	0.0245455
4860.00	18.99	0.0245358
4864.00	18.93	0.0245224
4868.00	18.86	0.0244816
4872.00	18.79	0.0244662
4876.00	18.73	0.0244700
4880.00	18.66	0.0244398
4884.00	18.59	0.0244308
4888.00	18.52	0.0244158
4892.00	18.46	0.0244040
4896.00	18.39	0.0244002
4900.00	18.32	0.0243932
4904.00	18.26	0.0243777
4908.00	18.19	0.0243643
4912.00	18.13	0.0243469
4916.00	18.06	0.0243252
4920.00	17.99	0.0242932
4924.00	17.93	0.0243134
4928.00	17.86	0.0242806
4932.00	17.79	0.0243163
4936.00	17.72	0.0243233
4940.00	17.66	0.0242834
4944.00	17.59	0.0242508
4948.00	17.52	0.0242606
4952.00	17.46	0.0242116
4956.00	17.39	0.0242421
4960.00	17.33	0.0242396
4964.00	17.26	0.0242348
4968.00	17.19	0.0242213
4972.00	17.13	0.0241893
4976.00	17.06	0.0241790
4980.00	16.99	0.0241893
4984.00	16.92	0.0242169
4988.00	16.86	0.0242060
4992.00	16.79	0.0241768
4996.00	16.72	0.0241787
5000.00	16.66	0.0241261
5004.00	16.59	0.0241278
5008.00	16.52	0.0240738
5012.00	16.46	0.0240689
5016.00	16.39	0.0240829
5020.00	16.32	0.0240752
5024.00	16.26	0.0240523
5028.00	16.19	0.0240250
5032.00	16.13	0.0239982
5036.00	16.06	0.0239949
5040.00	15.99	0.0239807
5044.00	15.92	0.0239849
5048.00	15.86	0.0239922
5052.00	15.79	0.0239824
5056.00	15.72	0.0239762
5060.00	15.66	0.0240047
5064.00	15.59	0.0239531
5068.00	15.52	0.0239265
5072.00	15.46	0.0238867
5076.00	15.39	0.0238845
5080.00	15.32	0.0238894
5084.00	15.26	0.0239298
5088.00	15.19	0.0239020
5092.00	15.12	0.0238805
5096.00	15.06	0.0238741
5100.00	14.99	0.0238962
5104.00	14.92	0.0238705
5108.00	14.86	0.0238744
5112.00	14.79	0.0238417
5116.00	14.72	0.0238302
5120.00	14.66	0.0238057
5124.00	14.59	0.0237419
5128.00	14.52	0.0237670
5132.00	14.46	0.0237872
5136.00	14.39	0.0237571
5140.00	14.32	0.0237512
5144.00	14.26	0.0237193
5148.00	14.19	0.0237209
5152.00	14.12	0.0236969
5156.00	14.06	0.0237253
5160.00	13.99	0.0236492
5164.00	13.92	0.0236610
5168.00	13.86	0.0236491
5172.00	13.79	0.0236930
5176.00	13.72	0.0236294
5180.00	13.66	0.0236170
5184.00	13.59	0.0235830
5188.00	13.52	0.0235771
5192.00	13.46	0.0235853
5196.00	13.39	0.0236039
5200.00	13.32	0.0236084
5204.00	13.26	0.0236050
5208.00	13.19	0.0235614
5212.00	13.12	0.0235643
5216.00	13.06	0.0235467
5220.00	12.99	0.0235118
5224.00	12.92	0.0235129
5228.00	12.86	0.0235054
5232.00	12.79	0.0234968
5236.00	12.72	0.0234868
5240.00	12.66	0.0234498
5244.00	12.59	0.0234176
5248.00	12.52	0.0234517
5252.00	12.46	0.0234876
5256.00	12.39	0.0234794
5260.00	12.32	0.0234538
5264.00	12.26	0.0234452
5268.00	12.19	0.0234314
5272.00	12.12	0.0234027
5276.00	12.06	0.0233947
5280.00	11.99	0.0233854
5284.00	11.92	0.0233512
5288.00	11.86	0.0233324
5292.00	11.79	0.0233563
5296.00	11.72	0.0233850
5300.00	11.66	0.0233811
5304.00	11.59	0.0233936
5308.00	11.52	0.0233847
5312.00	11.46	0.0233407
5316.00	11.39	0.0233151
5320.00	11.32	0.0233412
5324.00	11.26	0.0232930
5328.00	11.19	0.0232388
5332.00	11.12	0.0231819
5336.00	11.06	0.0232129
5340.00	10.99	0.0231684
5344.00	10.92	0.0231873
5348.00	10.86	0.0231497
5352.00	10.79	0.0231269
5356.00	10.72	0.0230943
5360.00	10.66	0.0230858
5364.00	10.59	0.0231218
5368.00	10.52	0.0231147
5372.00	10.46	0.0230906
5376.00	10.39	0.0230724
5380.00	10.32	0.0230833
5384.00	10.26	0.0230268
5388.00	10.19	0.0230155
5392.00	10.13	0.0229814
5396.00	10.06	0.0229854
5400.00	9.99	0.0229830
5404.00	9.92	0.0230057
5408.00	9.86	0.0229911
5412.00	9.79	0.0229592
5416.00	9.72	0.0229696
5420.00	9.66	0.0229395
5424.00	9.59	0.0229487
5428.00	9.52	0.0229768
5432.00	9.46	0.0229394
5436.00	9.39	0.0229159
5440.00	9.32	0.0229052
5444.00	9.26	0.0229013
5448.00	9.19	0.0228953
5452.00	9.12	0.0228722
5456.00	9.06	0.0228305
5460.00	8.99	0.0228501
5464.00	8.92	0.0228409
5468.00	8.86	0.0228469
5472.00	8.79	0.0228447
5476.00	8.72	0.0228443
5480.00	8.66	0.0227912
5484.00	8.59	0.0227958
5488.00	8.52	0.0227747
5492.00	8.46	0.0227521
5496.00	8.39	0.0227076
5500.00	8.32	0.0227062
5504.00	8.26	0.0227000
5508.00	8.19	0.0226962
5512.00	8.12	0.0226758
5516.00	8.06	0.0226823
5520.00	7.99	0.0226852
5524.00	7.92	0.0226522
5528.00	7.86	0.0226527
5532.00	7.79	0.0226906
5536.00	7.72	0.0226575
5540.00	7.66	0.0226686
5544.00	7.59	0.0226648
5548.00	7.52	0.0226523
5552.00	7.46	0.0226387
5556.00	7.39	0.0226090
5560.00	7.32	0.0225844
5564.00	7.26	0.0225460
5568.00	7.19	0.0225653
5572.00	7.12	0.0225394
5576.00	7.06	0.0225271
5580.00	6.99	0.0225157
5584.00	6.92	0.0225028
5588.00	6.86	0.0224939
5592.00	6.79	0.0224764
5596.00	6.72	0.0224514
5600.00	6.66	0.0224529
5604.00	6.59	0.0224338
5608.00	6.52	0.0224408
5612.00	6.46	0.0224277
5616.00	6.39	0.0223940
5620.00	6.32	0.0223436
5624.00	6.26	0.0223767
5628.00	6.19	0.0223834
5632.00	6.12	0.0223829
5636.00	6.06	0.0223904
5640.00	5.99	0.0223455
5644.00	5.92	0.0223331
5648.00	5.86	0.0223066
5652.00	5.79	0.0222612
5656.00	5.72	0.0222859
5660.00	5.66	0.0222398
5664.00	5.59	0.0222060
5668.00	5.52	0.0222134
5672.00	5.46	0.0222227
5676.00	5.39	0.0222276
5680.00	5.32	0.0222204
5684.00	5.26	0.0222473
5688.00	5.19	0.0222326
5692.00	5.12	0.0222005
5696.00	5.06	0.0221974
5700.00	4.99	0.0221954
5704.00	4.92	0.0221990
5708.00	4.86	0.0221725
5712.00	4.79	0.0221943
5716.00	4.72	0.0221979
5720.00	4.66	0.0221815
5724.00	4.59	0.0221293
5728.00	4.52	0.0221349
5732.00	4.45	0.0221276
5736.00	4.39	0.0221234
5740.00	4.32	0.0220894
5744.00	4.25	0.0221043
5748.00	4.19	0.0220901
5752.00	4.12	0.0221063
5756.00	4.05	0.0221237
5760.00	3.99	0.0220806
5764.00	3.92	0.0220763
5768.00	3.85	0.0220565
5772.00	3.79	0.0220468
5776.00	3.72	0.0220412
5780.00	3.66	0.0220286
5784.00	3.59	0.0220037
5788.00	3.52	0.0220039
5792.00	3.46	0.0219981
5796.00	3.39	0.0219943
5800.00	3.32	0.0219658
5804.00	3.26	0.0219188
5808.00	3.19	0.0219132
5812.00	3.12	0.0219288
5816.00	3.05	0.0219424
5820.00	2.99	0.0219474
5824.00	2.92	0.0219699
5828.00	2.86	0.0219578
5832.00	2.79	0.0219455
5836.00	2.72	0.0219773
5840.00	2.66	0.0219234
5844.00	2.59	0.0219330
5848.00	2.52	0.0219035
5852.00	2.46	0.0219212
5856.00	2.39	0.0219256
5860.00	2.32	0.0219482
5864.00	2.26	0.0218966
5868.00	2.19	0.0218979
5872.00	2.12	0.0219011
5876.00	2.05	0.0218838
5880.00	1.99	0.0218900
5884.00	1.92	0.0218796
5888.00	1.86	0.0218744
5892.00	1.79	0.0218748
5896.00	1.72	0.0218805
5900.00	1.65	0.0218972
5904.00	1.59	0.0218347
5908.00	1.52	0.0218106
5912.00	1.46	0.0217876
5916.00	1.39	0.0217804
5920.00	1.32	0.0217930
5924.00	1.25	0.0218333
5928.00	1.19	0.0218321
5932.00	1.12	0.0218429
5936.00	1.06	0.0218103
5940.00	0.99	0.0217999
5944.00	0.92	0.0218045
5948.00	0.86	0.0218143
5952.00	0.79	0.0218297
5956.00	0.72	0.0218525
5960.00	0.66	0.0218488
5964.00	0.59	0.0218323
5968.00	0.52	0.0218191
5972.00	0.46	0.0218082
5976.00	0.39	0.0218320
5980.00	0.32	0.0218297
5984.00	0.26	0.0218253
5988.00	0.19	0.0217730
5992.00	0.12	0.0217528
5996.00	0.05	0.0217335
5999.90	-0.01	0.0217520