File: Differential scanning calorimetry/12OCB Squalane/12OCB SqA wt fraction 000.txt
Filename	12OCB
Instrument name	DSC2A-00101 (192.168.10.4)
Operator	Yuma
rundate	2/4/2021
Sample name	12OCB
proceduresegments	Jump 100.00 °C; Isothermal 10.0 min; Jump 0.00 °C; Isothermal 5.0 min; Mark End of Cycle ; Ramp 5.00 °C/min to 100.00 °C; Mark End of Cycle ; Ramp 5.00 °C/min to 0.00 °C; Mark End of Cycle ; Ramp 5.00 °C/min to 100.00 °C; Mark End of Cycle ; Ramp 1.00 °C/min to 0.00 °C; Mark End of Cycle ; Ramp 5.00 °C/min to 100.00 °C; Mark End of Cycle ; Ramp 10.00 °C/min to 0.00 °C; Mark End of Cycle ; Ramp 10.00 °C/min to 100.00 °C; Mark End of Cycle ; Jump 0.00 °C; Mark End of Cycle
[step]
Ramp 1.00 °C/min to 0.00 °C
Time	Temperature	Heat Flow (Normalized)
s	°C	W/g
4500.30	98.93	-0.151854
4504.30	99.24	-0.0995351
4508.30	99.40	-0.218804
4512.30	99.45	-0.174250
4516.30	99.44	-0.0935825
4520.30	99.41	-0.0409416
4524.30	99.35	-7.65387e-3
4528.30	99.30	9.84734e-3
4532.30	99.23	0.0189447
4536.30	99.17	0.0231277
4540.30	99.10	0.0257093
4544.30	99.04	0.0272490
4548.30	98.97	0.0285814
4552.30	98.91	0.0296812
4556.30	98.84	0.0305937
4560.30	98.77	0.0313026
4564.30	98.71	0.0318504
4568.30	98.64	0.0322382
4572.30	98.57	0.0325438
4576.30	98.51	0.0327874
4580.30	98.44	0.0329352
4584.30	98.37	0.0330472
4588.30	98.31	0.0331152
4592.30	98.24	0.0331947
4596.30	98.18	0.0332541
4600.30	98.11	0.0332738
4604.30	98.04	0.0332829
4608.30	97.98	0.0332714
4612.30	97.91	0.0332621
4616.30	97.84	0.0331869
4620.30	97.78	0.0332100
4624.30	97.71	0.0332387
4628.30	97.64	0.0331889
4632.30	97.58	0.0331198
4636.30	97.51	0.0331074
4640.30	97.44	0.0331115
4644.30	97.38	0.0330775
4648.30	97.31	0.0330573
4652.30	97.24	0.0330713
4656.30	97.18	0.0330705
4660.30	97.11	0.0330225
4664.30	97.04	0.0330304
4668.30	96.98	0.0329684
4672.30	96.91	0.0329580
4676.30	96.84	0.0329910
4680.30	96.78	0.0329575
4684.30	96.71	0.0329435
4688.30	96.64	0.0329682
4692.30	96.58	0.0329523
4696.30	96.51	0.0329407
4700.30	96.44	0.0329418
4704.30	96.38	0.0329447
4708.30	96.31	0.0329067
4712.30	96.24	0.0328701
4716.30	96.18	0.0329286
4720.30	96.11	0.0329033
4724.30	96.04	0.0329132
4728.30	95.98	0.0328743
4732.30	95.91	0.0328683
4736.30	95.84	0.0328288
4740.30	95.78	0.0328418
4744.30	95.71	0.0328027
4748.30	95.64	0.0328115
4752.30	95.58	0.0328212
4756.30	95.51	0.0327932
4760.30	95.44	0.0327998
4764.30	95.38	0.0327899
4768.30	95.31	0.0327683
4772.30	95.24	0.0328057
4776.30	95.18	0.0328216
4780.30	95.11	0.0328332
4784.30	95.04	0.0328518
4788.30	94.98	0.0328472
4792.30	94.91	0.0327828
4796.30	94.84	0.0328192
4800.30	94.78	0.0328119
4804.30	94.71	0.0328029
4808.30	94.64	0.0328029
4812.30	94.58	0.0327710
4816.30	94.51	0.0327965
4820.30	94.44	0.0328339
4824.30	94.38	0.0328007
4828.30	94.31	0.0328152
4832.30	94.24	0.0328666
4836.30	94.18	0.0328092
4840.30	94.11	0.0327960
4844.30	94.04	0.0327568
4848.30	93.98	0.0327552
4852.30	93.91	0.0328065
4856.30	93.84	0.0328006
4860.30	93.78	0.0328148
4864.30	93.71	0.0328036
4868.30	93.64	0.0327570
4872.30	93.58	0.0327442
4876.30	93.51	0.0327084
4880.30	93.44	0.0327474
4884.30	93.38	0.0327291
4888.30	93.31	0.0327323
4892.30	93.24	0.0327245
4896.30	93.18	0.0327547
4900.30	93.11	0.0327026
4904.30	93.04	0.0327284
4908.30	92.98	0.0327094
4912.30	92.91	0.0327174
4916.30	92.84	0.0327512
4920.30	92.78	0.0327142
4924.30	92.71	0.0327580
4928.30	92.64	0.0327591
4932.30	92.58	0.0327348
4936.30	92.51	0.0327403
4940.30	92.44	0.0327353
4944.30	92.38	0.0327900
4948.30	92.31	0.0328237
4952.30	92.24	0.0328226
4956.30	92.18	0.0328212
4960.30	92.11	0.0328256
4964.30	92.04	0.0328233
4968.30	91.98	0.0328549
4972.30	91.91	0.0329179
4976.30	91.84	0.0329014
4980.30	91.78	0.0328870
4984.30	91.71	0.0328742
4988.30	91.64	0.0328946
4992.30	91.58	0.0328295
4996.30	91.51	0.0328530
5000.30	91.45	0.0328251
5004.30	91.38	0.0328646
5008.30	91.31	0.0328787
5012.30	91.25	0.0328932
5016.30	91.18	0.0329226
5020.30	91.11	0.0329431
5024.30	91.05	0.0329703
5028.30	90.98	0.0329807
5032.30	90.91	0.0330084
5036.30	90.84	0.0329803
5040.30	90.78	0.0330552
5044.30	90.71	0.0330662
5048.30	90.64	0.0330371
5052.30	90.58	0.0330378
5056.30	90.51	0.0330346
5060.30	90.45	0.0330626
5064.30	90.38	0.0330600
5068.30	90.31	0.0330972
5072.30	90.24	0.0331046
5076.30	90.18	0.0331315
5080.30	90.11	0.0331391
5084.30	90.04	0.0331605
5088.30	89.98	0.0332502
5092.30	89.91	0.0333017
5096.30	89.85	0.0332776
5100.30	89.78	0.0333001
5104.30	89.71	0.0333119
5108.30	89.65	0.0333236
5112.30	89.58	0.0333832
5116.30	89.51	0.0334102
5120.30	89.45	0.0333774
5124.30	89.38	0.0333966
5128.30	89.31	0.0334137
5132.30	89.24	0.0334326
5136.30	89.18	0.0334307
5140.30	89.11	0.0335289
5144.30	89.05	0.0335432
5148.30	88.98	0.0335564
5152.30	88.91	0.0336053
5156.30	88.85	0.0336437
5160.30	88.78	0.0336901
5164.30	88.71	0.0336396
5168.30	88.66	0.0531903
5172.30	88.62	0.136324
5176.30	88.59	0.245623
5180.30	88.57	0.460552
5184.30	88.53	0.645554
5188.30	88.45	0.617046
5192.30	88.36	0.535431
5196.30	88.25	0.409526
5200.30	88.15	0.226135
5204.30	88.07	0.129441
5208.30	87.99	0.0827386
5212.30	87.92	0.0598278
5216.30	87.85	0.0485939
5220.30	87.78	0.0436329
5224.30	87.71	0.0414690
5228.30	87.65	0.0401659
5232.30	87.58	0.0389195
5236.30	87.51	0.0378591
5240.30	87.45	0.0369734
5244.30	87.38	0.0362066
5248.30	87.31	0.0356715
5252.30	87.25	0.0351656
5256.30	87.18	0.0348021
5260.30	87.11	0.0345138
5264.30	87.05	0.0343413
5268.30	86.98	0.0341971
5272.30	86.91	0.0340460
5276.30	86.85	0.0339617
5280.30	86.78	0.0338748
5284.30	86.71	0.0337334
5288.30	86.65	0.0336694
5292.30	86.58	0.0335429
5296.30	86.51	0.0334936
5300.30	86.45	0.0334156
5304.30	86.38	0.0333671
5308.30	86.31	0.0333446
5312.30	86.25	0.0332529
5316.30	86.18	0.0331786
5320.30	86.11	0.0331093
5324.30	86.05	0.0330597
5328.30	85.98	0.0329887
5332.30	85.91	0.0329379
5336.30	85.85	0.0329143
5340.30	85.78	0.0328798
5344.30	85.71	0.0328181
5348.30	85.65	0.0328178
5352.30	85.58	0.0328025
5356.30	85.51	0.0327422
5360.30	85.45	0.0327099
5364.30	85.38	0.0326723
5368.30	85.31	0.0326560
5372.30	85.24	0.0325571
5376.30	85.18	0.0325698
5380.30	85.11	0.0325844
5384.30	85.05	0.0325827
5388.30	84.98	0.0325414
5392.30	84.91	0.0324902
5396.30	84.85	0.0324751
5400.30	84.78	0.0324552
5404.30	84.71	0.0324510
5408.30	84.65	0.0324095
5412.30	84.58	0.0323379
5416.30	84.51	0.0322668
5420.30	84.45	0.0322586
5424.30	84.38	0.0322388
5428.30	84.31	0.0321900
5432.30	84.25	0.0321799
5436.30	84.18	0.0321447
5440.30	84.11	0.0321559
5444.30	84.05	0.0320388
5448.30	83.98	0.0320058
5452.30	83.91	0.0319821
5456.30	83.85	0.0319601
5460.30	83.78	0.0319381
5464.30	83.71	0.0318843
5468.30	83.65	0.0319123
5472.30	83.58	0.0318953
5476.30	83.51	0.0318247
5480.30	83.44	0.0319002
5484.30	83.38	0.0319070
5488.30	83.31	0.0318491
5492.30	83.25	0.0318002
5496.30	83.18	0.0317696
5500.30	83.11	0.0317532
5504.30	83.05	0.0317334
5508.30	82.98	0.0317122
5512.30	82.91	0.0317125
5516.30	82.85	0.0316523
5520.30	82.78	0.0316717
5524.30	82.71	0.0317179
5528.30	82.65	0.0316176
5532.30	82.58	0.0315865
5536.30	82.51	0.0315897
5540.30	82.45	0.0315427
5544.30	82.38	0.0315179
5548.30	82.31	0.0315024
5552.30	82.25	0.0314414
5556.30	82.18	0.0313967
5560.30	82.11	0.0313868
5564.30	82.05	0.0314179
5568.30	81.98	0.0313322
5572.30	81.91	0.0313452
5576.30	81.85	0.0313363
5580.30	81.78	0.0312703
5584.30	81.71	0.0312772
5588.30	81.65	0.0312589
5592.30	81.58	0.0311941
5596.30	81.51	0.0311783
5600.30	81.45	0.0312170
5604.30	81.38	0.0311384
5608.30	81.31	0.0311165
5612.30	81.25	0.0311337
5616.30	81.18	0.0311333
5620.30	81.11	0.0310804
5624.30	81.05	0.0310785
5628.30	80.98	0.0310068
5632.30	80.91	0.0309779
5636.30	80.85	0.0309708
5640.30	80.78	0.0309356
5644.30	80.71	0.0309466
5648.30	80.64	0.0309468
5652.30	80.58	0.0309605
5656.30	80.51	0.0308989
5660.30	80.45	0.0308688
5664.30	80.38	0.0308923
5668.30	80.31	0.0308961
5672.30	80.25	0.0308351
5676.30	80.18	0.0308258
5680.30	80.11	0.0308318
5684.30	80.05	0.0308108
5688.30	79.98	0.0307290
5692.30	79.91	0.0307443
5696.30	79.85	0.0307519
5700.30	79.78	0.0307514
5704.30	79.71	0.0306692
5708.30	79.65	0.0306699
5712.30	79.58	0.0306594
5716.30	79.51	0.0306718
5720.30	79.45	0.0306416
5724.30	79.38	0.0305878
5728.30	79.31	0.0305559
5732.30	79.24	0.0305511
5736.30	79.18	0.0305226
5740.30	79.11	0.0305003
5744.30	79.05	0.0304924
5748.30	78.98	0.0304755
5752.30	78.91	0.0304863
5756.30	78.84	0.0304619
5760.30	78.78	0.0304080
5764.30	78.71	0.0304000
5768.30	78.65	0.0304044
5772.30	78.58	0.0303570
5776.30	78.51	0.0303338
5780.30	78.45	0.0303682
5784.30	78.38	0.0303579
5788.30	78.31	0.0302782
5792.30	78.25	0.0302685
5796.30	78.18	0.0302911
5800.30	78.11	0.0302916
5804.30	78.04	0.0302641
5808.30	77.98	0.0302835
5812.30	77.91	0.0303219
5816.30	77.85	0.0302763
5820.30	77.78	0.0302334
5824.30	77.71	0.0302291
5828.30	77.65	0.0301637
5832.30	77.58	0.0301160
5836.30	77.51	0.0301030
5840.30	77.45	0.0300731
5844.30	77.38	0.0300505
5848.30	77.31	0.0300252
5852.30	77.25	0.0300022
5856.30	77.18	0.0299687
5860.30	77.11	0.0299828
5864.30	77.05	0.0299265
5868.30	76.98	0.0299382
5872.30	76.91	0.0299483
5876.30	76.85	0.0299689
5880.30	76.78	0.0299417
5884.30	76.71	0.0299030
5888.30	76.65	0.0298666
5892.30	76.58	0.0298657
5896.30	76.51	0.0298765
5900.30	76.45	0.0298697
5904.30	76.38	0.0298418
5908.30	76.31	0.0297993
5912.30	76.25	0.0298017
5916.30	76.18	0.0297837
5920.30	76.11	0.0297724
5924.30	76.05	0.0297509
5928.30	75.98	0.0296857
5932.30	75.91	0.0296564
5936.30	75.84	0.0296202
5940.30	75.78	0.0296142
5944.30	75.71	0.0295672
5948.30	75.64	0.0295538
5952.30	75.58	0.0295669
5956.30	75.51	0.0295266
5960.30	75.45	0.0295232
5964.30	75.38	0.0295038
5968.30	75.31	0.0295473
5972.30	75.24	0.0295157
5976.30	75.18	0.0295142
5980.30	75.11	0.0294904
5984.30	75.05	0.0295570
5988.30	74.98	0.0295620
5992.30	74.91	0.0295166
5996.30	74.85	0.0295514
6000.30	74.78	0.0295532
6004.30	74.71	0.0294787
6008.30	74.64	0.0294760
6012.30	74.58	0.0294684
6016.30	74.51	0.0294874
6020.30	74.45	0.0294502
6024.30	74.38	0.0294122
6028.30	74.31	0.0293945
6032.30	74.24	0.0293608
6036.30	74.18	0.0293596
6040.30	74.11	0.0293305
6044.30	74.04	0.0292965
6048.30	73.98	0.0293097
6052.30	73.91	0.0293208
6056.30	73.84	0.0293094
6060.30	73.78	0.0292502
6064.30	73.71	0.0292382
6068.30	73.65	0.0292406
6072.30	73.58	0.0292165
6076.30	73.51	0.0291947
6080.30	73.45	0.0291869
6084.30	73.38	0.0291907
6088.30	73.31	0.0292079
6092.30	73.24	0.0291609
6096.30	73.18	0.0291671
6100.30	73.11	0.0291297
6104.30	73.05	0.0291123
6108.30	72.98	0.0291183
6112.30	72.91	0.0290924
6116.30	72.85	0.0291110
6120.30	72.78	0.0290784
6124.30	72.71	0.0290458
6128.30	72.65	0.0290945
6132.30	72.58	0.0290689
6136.30	72.51	0.0290427
6140.30	72.45	0.0290887
6144.30	72.38	0.0290555
6148.30	72.31	0.0290501
6152.30	72.25	0.0290423
6156.30	72.18	0.0290421
6160.30	72.11	0.0290352
6164.30	72.05	0.0290158
6168.30	71.98	0.0289576
6172.30	71.91	0.0289599
6176.30	71.85	0.0289566
6180.30	71.78	0.0289196
6184.30	71.71	0.0289479
6188.30	71.64	0.0289094
6192.30	71.58	0.0288853
6196.30	71.51	0.0288866
6200.30	71.45	0.0287953
6204.30	71.38	0.0287794
6208.30	71.31	0.0288072
6212.30	71.25	0.0287425
6216.30	71.18	0.0287222
6220.30	71.11	0.0287214
6224.30	71.05	0.0287030
6228.30	70.98	0.0287299
6232.30	70.91	0.0287218
6236.30	70.84	0.0287019
6240.30	70.78	0.0287196
6244.30	70.71	0.0287278
6248.30	70.65	0.0286042
6252.30	70.58	0.0286098
6256.30	70.51	0.0286178
6260.30	70.45	0.0285683
6264.30	70.38	0.0285957
6268.30	70.31	0.0285679
6272.30	70.24	0.0285346
6276.30	70.18	0.0284886
6280.30	70.11	0.0284620
6284.30	70.05	0.0284612
6288.30	69.98	0.0284354
6292.30	69.91	0.0284467
6296.30	69.85	0.0284288
6300.30	69.78	0.0284459
6304.30	69.71	0.0284005
6308.30	69.65	0.0284286
6312.30	69.58	0.0284217
6316.30	69.51	0.0283701
6320.30	69.45	0.0283520
6324.30	69.38	0.0283660
6328.30	69.31	0.0283864
6332.30	69.25	0.0284069
6336.30	69.18	0.0284121
6340.30	69.11	0.0283911
6344.30	69.04	0.0283718
6348.30	68.98	0.0283496
6352.30	68.91	0.0283046
6356.30	68.85	0.0282695
6360.30	68.78	0.0282377
6364.30	68.71	0.0283037
6368.30	68.64	0.0282511
6372.30	68.58	0.0282627
6376.30	68.51	0.0282278
6380.30	68.45	0.0282455
6384.30	68.38	0.0282185
6388.30	68.31	0.0281762
6392.30	68.25	0.0282251
6396.30	68.18	0.0282324
6400.30	68.11	0.0282164
6404.30	68.05	0.0281795
6408.30	67.98	0.0281780
6412.30	67.91	0.0282020
6416.30	67.85	0.0281640
6420.30	67.78	0.0281229
6424.30	67.71	0.0281085
6428.30	67.65	0.0280920
6432.30	67.58	0.0281110
6436.30	67.51	0.0280333
6440.30	67.44	0.0280234
6444.30	67.38	0.0279968
6448.30	67.31	0.0280239
6452.30	67.25	0.0279849
6456.30	67.18	0.0279985
6460.30	67.11	0.0279741
6464.30	67.04	0.0280013
6468.30	66.98	0.0280423
6472.30	66.91	0.0280544
6476.30	66.84	0.0279788
6480.30	66.78	0.0279870
6484.30	66.71	0.0280121
6488.30	66.65	0.0280122
6492.30	66.58	0.0279983
6496.30	66.51	0.0279973
6500.30	66.45	0.0279648
6504.30	66.38	0.0279640
6508.30	66.31	0.0279287
6512.30	66.25	0.0279087
6516.30	66.18	0.0279425
6520.30	66.11	0.0278871
6524.30	66.05	0.0278989
6528.30	65.98	0.0278378
6532.30	65.91	0.0278061
6536.30	65.85	0.0277745
6540.30	65.78	0.0278051
6544.30	65.71	0.0277658
6548.30	65.65	0.0277348
6552.30	65.58	0.0276812
6556.30	65.51	0.0277052
6560.30	65.44	0.0276786
6564.30	65.38	0.0276817
6568.30	65.31	0.0276648
6572.30	65.25	0.0276291
6576.30	65.18	0.0276559
6580.30	65.11	0.0276784
6584.30	65.04	0.0276669
6588.30	64.98	0.0276801
6592.30	64.91	0.0276679
6596.30	64.85	0.0276529
6600.30	64.78	0.0276339
6604.30	64.71	0.0276322
6608.30	64.65	0.0276080
6612.30	64.58	0.0275933
6616.30	64.51	0.0276047
6620.30	64.44	0.0276027
6624.30	64.38	0.0275681
6628.30	64.31	0.0275558
6632.30	64.25	0.0275380
6636.30	64.18	0.0274706
6640.30	64.11	0.0275207
6644.30	64.05	0.0274883
6648.30	63.98	0.0274663
6652.30	63.91	0.0274433
6656.30	63.85	0.0274396
6660.30	63.78	0.0274265
6664.30	63.71	0.0274329
6668.30	63.64	0.0274501
6672.30	63.58	0.0274274
6676.30	63.51	0.0273569
6680.30	63.45	0.0273757
6684.30	63.38	0.0273446
6688.30	63.31	0.0273193
6692.30	63.25	0.0273410
6696.30	63.18	0.0273159
6700.30	63.11	0.0273253
6704.30	63.05	0.0273391
6708.30	62.98	0.0273166
6712.30	62.91	0.0273257
6716.30	62.85	0.0272942
6720.30	62.78	0.0272800
6724.30	62.71	0.0272715
6728.30	62.64	0.0272583
6732.30	62.58	0.0272441
6736.30	62.51	0.0272383
6740.30	62.45	0.0271970
6744.30	62.38	0.0272005
6748.30	62.31	0.0272028
6752.30	62.25	0.0272307
6756.30	62.18	0.0271790
6760.30	62.11	0.0271831
6764.30	62.05	0.0271814
6768.30	61.98	0.0271681
6772.30	61.91	0.0271792
6776.30	61.85	0.0271274
6780.30	61.78	0.0271137
6784.30	61.71	0.0270975
6788.30	61.65	0.0270852
6792.30	61.58	0.0270894
6796.30	61.51	0.0270469
6800.30	61.45	0.0270902
6804.30	61.38	0.0270794
6808.30	61.31	0.0270832
6812.30	61.24	0.0271077
6816.30	61.18	0.0270336
6820.30	61.11	0.0270503
6824.30	61.05	0.0270143
6828.30	60.98	0.0270134
6832.30	60.91	0.0270007
6836.30	60.85	0.0270170
6840.30	60.78	0.0269595
6844.30	60.71	0.0269749
6848.30	60.64	0.0269560
6852.30	60.58	0.0269852
6856.30	60.51	0.0269535
6860.30	60.44	0.0269751
6864.30	60.38	0.0269333
6868.30	60.31	0.0268851
6872.30	60.25	0.0268566
6876.30	60.18	0.0268246
6880.30	60.11	0.0268130
6884.30	60.04	0.0267881
6888.30	59.98	0.0267961
6892.30	59.91	0.0268137
6896.30	59.85	0.0267826
6900.30	59.78	0.0267801
6904.30	59.71	0.0267923
6908.30	59.64	0.0267390
6912.30	59.58	0.0267266
6916.30	59.51	0.0267518
6920.30	59.44	0.0267347
6924.30	59.38	0.0267632
6928.30	59.31	0.0267241
6932.30	59.24	0.0267660
6936.30	59.18	0.0267469
6940.30	59.11	0.0267238
6944.30	59.05	0.0266731
6948.30	58.98	0.0267410
6952.30	58.91	0.0266992
6956.30	58.85	0.0266765
6960.30	58.78	0.0266677
6964.30	58.71	0.0266537
6968.30	58.65	0.0266558
6972.30	58.58	0.0265868
6976.30	58.51	0.0265794
6980.30	58.45	0.0265679
6984.30	58.38	0.0265768
6988.30	58.31	0.0265218
6992.30	58.25	0.0265604
6996.30	58.18	0.0265509
7000.30	58.11	0.0265404
7004.30	58.04	0.0265524
7008.30	57.98	0.0265521
7012.30	57.91	0.0265475
7016.30	57.84	0.0265334
7020.30	57.78	0.0265232
7024.30	57.71	0.0265372
7028.30	57.64	0.0264940
7032.30	57.58	0.0265113
7036.30	57.51	0.0264901
7040.30	57.44	0.0265108
7044.30	57.38	0.0264600
7048.30	57.31	0.0264587
7052.30	57.25	0.0264798
7056.30	57.18	0.0264198
7060.30	57.11	0.0264158
7064.30	57.04	0.0263548
7068.30	56.98	0.0263587
7072.30	56.91	0.0262977
7076.30	56.85	0.0262640
7080.30	56.78	0.0262566
7084.30	56.71	0.0263149
7088.30	56.64	0.0263521
7092.30	56.58	0.0263021
7096.30	56.51	0.0262813
7100.30	56.44	0.0262518
7104.30	56.38	0.0262005
7108.30	56.31	0.0261717
7112.30	56.24	0.0262205
7116.30	56.18	0.0261997
7120.30	56.11	0.0261834
7124.30	56.04	0.0261711
7128.30	55.98	0.0262028
7132.30	55.91	0.0261925
7136.30	55.85	0.0261683
7140.30	55.78	0.0261994
7144.30	55.71	0.0261922
7148.30	55.64	0.0261736
7152.30	55.58	0.0261964
7156.30	55.51	0.0262419
7160.30	55.44	0.0261912
7164.30	55.38	0.0261750
7168.30	55.31	0.0261304
7172.30	55.25	0.0261404
7176.30	55.18	0.0261696
7180.30	55.11	0.0261464
7184.30	55.05	0.0261302
7188.30	54.98	0.0260895
7192.30	54.91	0.0260675
7196.30	54.85	0.0260666
7200.30	54.78	0.0260757
7204.30	54.71	0.0260539
7208.30	54.64	0.0260409
7212.30	54.58	0.0260063
7216.30	54.51	0.0260693
7220.30	54.45	0.0260440
7224.30	54.38	0.0260947
7228.30	54.31	0.0260322
7232.30	54.25	0.0259792
7236.30	54.18	0.0259467
7240.30	54.11	0.0259617
7244.30	54.05	0.0259563
7248.30	53.98	0.0259768
7252.30	53.91	0.0259623
7256.30	53.84	0.0259556
7260.30	53.78	0.0259307
7264.30	53.71	0.0259198
7268.30	53.65	0.0258682
7272.30	53.58	0.0259397
7276.30	53.51	0.0259501
7280.30	53.44	0.0258903
7284.30	53.38	0.0258808
7288.30	53.31	0.0259051
7292.30	53.25	0.0258835
7296.30	53.18	0.0258402
7300.30	53.11	0.0258000
7304.30	53.05	0.0257818
7308.30	52.98	0.0257981
7312.30	52.91	0.0257731
7316.30	52.84	0.0257499
7320.30	52.78	0.0257845
7324.30	52.71	0.0257782
7328.30	52.65	0.0257913
7332.30	52.58	0.0257843
7336.30	52.51	0.0257909
7340.30	52.45	0.0257664
7344.30	52.38	0.0257551
7348.30	52.31	0.0257264
7352.30	52.24	0.0257426
7356.30	52.18	0.0257367
7360.30	52.11	0.0257130
7364.30	52.04	0.0257063
7368.30	51.98	0.0257368
7372.30	51.91	0.0256791
7376.30	51.85	0.0256930
7380.30	51.78	0.0256912
7384.30	51.71	0.0257718
7388.30	51.65	0.0258561
7392.30	51.58	0.0260089
7396.30	51.52	-0.0157206
7400.30	51.56	0.0292165
7404.30	51.90	1.41181
7408.30	52.00	2.51576
7412.30	51.96	2.69316
7416.30	51.92	2.74831
7420.30	51.90	2.85739
7424.30	51.93	3.09384
7428.30	52.01	3.77745
7432.30	51.95	4.78738
7436.30	51.40	2.63578
7440.30	51.06	1.36096
7444.30	50.85	0.696474
7448.30	50.72	0.365663
7452.30	50.61	0.196895
7456.30	50.53	0.109579
7460.30	50.45	0.0685551
7464.30	50.38	0.0461765
7468.30	50.31	0.0362518
7472.30	50.24	0.0314811
7476.30	50.18	0.0290241
7480.30	50.11	0.0273303
7484.30	50.04	0.0261811
7488.30	49.98	0.0251335
7492.30	49.91	0.0242250
7496.30	49.84	0.0234899
7500.30	49.78	0.0229081
7504.30	49.71	0.0224534
7508.30	49.64	0.0220413
7512.30	49.58	0.0216510
7516.30	49.51	0.0213809
7520.30	49.44	0.0211224
7524.30	49.38	0.0209135
7528.30	49.31	0.0207836
7532.30	49.24	0.0206574
7536.30	49.18	0.0205356
7540.30	49.11	0.0203726
7544.30	49.04	0.0202808
7548.30	48.98	0.0201767
7552.30	48.91	0.0201379
7556.30	48.84	0.0200787
7560.30	48.78	0.0199529
7564.30	48.71	0.0198935
7568.30	48.64	0.0198163
7572.30	48.58	0.0197313
7576.30	48.51	0.0196966
7580.30	48.44	0.0196884
7584.30	48.38	0.0197351
7588.30	48.31	0.0197407
7592.30	48.24	0.0197862
7596.30	48.18	0.0198443
7600.30	48.11	0.0198556
7604.30	48.04	0.0198784
7608.30	47.98	0.0197792
7612.30	47.91	0.0197362
7616.30	47.84	0.0196503
7620.30	47.78	0.0195645
7624.30	47.71	0.0195145
7628.30	47.64	0.0194303
7632.30	47.58	0.0194342
7636.30	47.51	0.0193410
7640.30	47.44	0.0193118
7644.30	47.38	0.0192787
7648.30	47.31	0.0192263
7652.30	47.24	0.0191945
7656.30	47.18	0.0190873
7660.30	47.11	0.0190492
7664.30	47.04	0.0189916
7668.30	46.98	0.0189054
7672.30	46.91	0.0189030
7676.30	46.84	0.0188939
7680.30	46.78	0.0188603
7684.30	46.71	0.0187928
7688.30	46.64	0.0188765
7692.30	46.58	0.0191539
7696.30	46.51	0.0195283
7700.30	46.44	0.0196127
7704.30	46.38	0.0195274
7708.30	46.31	0.0193910
7712.30	46.24	0.0192324
7716.30	46.18	0.0190538
7720.30	46.11	0.0189089
7724.30	46.04	0.0188011
7728.30	45.98	0.0187413
7732.30	45.91	0.0187826
7736.30	45.84	0.0186738
7740.30	45.78	0.0186396
7744.30	45.71	0.0185281
7748.30	45.64	0.0184482
7752.30	45.58	0.0184008
7756.30	45.51	0.0184078
7760.30	45.44	0.0183200
7764.30	45.38	0.0182810
7768.30	45.31	0.0182080
7772.30	45.24	0.0181649
7776.30	45.18	0.0181879
7780.30	45.11	0.0181604
7784.30	45.04	0.0181213
7788.30	44.98	0.0180975
7792.30	44.91	0.0181083
7796.30	44.84	0.0180572
7800.30	44.78	0.0180178
7804.30	44.71	0.0180249
7808.30	44.64	0.0180224
7812.30	44.57	0.0180118
7816.30	44.51	0.0179620
7820.30	44.44	0.0179162
7824.30	44.38	0.0178797
7828.30	44.31	0.0178673
7832.30	44.24	0.0178604
7836.30	44.18	0.0178372
7840.30	44.11	0.0178109
7844.30	44.04	0.0177676
7848.30	43.98	0.0177450
7852.30	43.91	0.0176839
7856.30	43.84	0.0177146
7860.30	43.78	0.0176937
7864.30	43.71	0.0176162
7868.30	43.64	0.0176212
7872.30	43.58	0.0175730
7876.30	43.51	0.0175194
7880.30	43.44	0.0175614
7884.30	43.38	0.0175721
7888.30	43.31	0.0175883
7892.30	43.24	0.0174897
7896.30	43.18	0.0174756
7900.30	43.11	0.0174062
7904.30	43.04	0.0173483
7908.30	42.98	0.0173165
7912.30	42.91	0.0173295
7916.30	42.84	0.0173018
7920.30	42.78	0.0172908
7924.30	42.71	0.0173008
7928.30	42.64	0.0172991
7932.30	42.58	0.0172956
7936.30	42.51	0.0173257
7940.30	42.44	0.0172879
7944.30	42.38	0.0173220
7948.30	42.31	0.0173483
7952.30	42.24	0.0172577
7956.30	42.18	0.0172174
7960.30	42.11	0.0172102
7964.30	42.04	0.0171461
7968.30	41.98	0.0171503
7972.30	41.91	0.0171921
7976.30	41.84	0.0171255
7980.30	41.78	0.0170371
7984.30	41.71	0.0170365
7988.30	41.64	0.0169936
7992.30	41.58	0.0170218
7996.30	41.51	0.0170187
8000.30	41.44	0.0169881
8004.30	41.38	0.0169528
8008.30	41.31	0.0170195
8012.30	41.24	0.0169729
8016.30	41.18	0.0169153
8020.30	41.11	0.0169018
8024.30	41.04	0.0168831
8028.30	40.98	0.0168410
8032.30	40.91	0.0168546
8036.30	40.84	0.0168626
8040.30	40.78	0.0167701
8044.30	40.71	0.0167486
8048.30	40.64	0.0166796
8052.30	40.58	0.0166444
8056.30	40.51	0.0165956
8060.30	40.44	0.0165987
8064.30	40.37	0.0166256
8068.30	40.31	0.0166091
8072.30	40.24	0.0166334
8076.30	40.17	0.0166533
8080.30	40.11	0.0165432
8084.30	40.04	0.0164894
8088.30	39.98	0.0165049
8092.30	39.91	0.0164626
8096.30	39.84	0.0164122
8100.30	39.78	0.0166202
8104.30	39.71	0.0166493
8108.30	39.64	0.0166282
8112.30	39.58	0.0165946
8116.30	39.51	0.0165320
8120.30	39.44	0.0164943
8124.30	39.38	0.0164525
8128.30	39.31	0.0164921
8132.30	39.24	0.0164111
8136.30	39.17	0.0164093
8140.30	39.11	0.0163930
8144.30	39.04	0.0163540
8148.30	38.98	0.0162875
8152.30	38.91	0.0162861
8156.30	38.84	0.0162336
8160.30	38.78	0.0162448
8164.30	38.71	0.0161978
8168.30	38.64	0.0162265
8172.30	38.58	0.0162012
8176.30	38.51	0.0161531
8180.30	38.44	0.0161297
8184.30	38.37	0.0160999
8188.30	38.31	0.0160673
8192.30	38.24	0.0160362
8196.30	38.17	0.0159861
8200.30	38.11	0.0159711
8204.30	38.04	0.0159640
8208.30	37.98	0.0159493
8212.30	37.91	0.0159005
8216.30	37.84	0.0159285
8220.30	37.77	0.0158898
8224.30	37.71	0.0159070
8228.30	37.64	0.0159039
8232.30	37.58	0.0159416
8236.30	37.51	0.0159128
8240.30	37.44	0.0158772
8244.30	37.38	0.0158459
8248.30	37.31	0.0158517
8252.30	37.24	0.0158689
8256.30	37.18	0.0157754
8260.30	37.11	0.0157673
8264.30	37.04	0.0157861
8268.30	36.97	0.0157529
8272.30	36.91	0.0157282
8276.30	36.84	0.0156587
8280.30	36.77	0.0156332
8284.30	36.71	0.0156172
8288.30	36.64	0.0156054
8292.30	36.58	0.0156128
8296.30	36.51	0.0155829
8300.30	36.44	0.0155742
8304.30	36.37	0.0155617
8308.30	36.31	0.0155217
8312.30	36.24	0.0155436
8316.30	36.17	0.0155164
8320.30	36.11	0.0155390
8324.30	36.04	0.0154730
8328.30	35.97	0.0154812
8332.30	35.91	0.0154157
8336.30	35.84	0.0153885
8340.30	35.77	0.0153878
8344.30	35.71	0.0153937
8348.30	35.64	0.0153564
8352.30	35.57	0.0153347
8356.30	35.51	0.0153560
8360.30	35.44	0.0153164
8364.30	35.37	0.0152528
8368.30	35.31	0.0152708
8372.30	35.24	0.0152453
8376.30	35.17	0.0152322
8380.30	35.11	0.0152042
8384.30	35.04	0.0151826
8388.30	34.97	0.0151722
8392.30	34.91	0.0151405
8396.30	34.84	0.0150934
8400.30	34.77	0.0150820
8404.30	34.71	0.0150975
8408.30	34.64	0.0150464
8412.30	34.57	0.0149915
8416.30	34.51	0.0149760
8420.30	34.44	0.0149785
8424.30	34.37	0.0149255
8428.30	34.31	0.0149217
8432.30	34.24	0.0149294
8436.30	34.17	0.0149027
8440.30	34.11	0.0148613
8444.30	34.04	0.0148325
8448.30	33.98	0.0231540
8452.30	33.91	0.0223788
8456.30	33.84	0.0212642
8460.30	33.77	0.0199672
8464.30	33.71	0.0188732
8468.30	33.64	0.0179115
8472.30	33.57	0.0171536
8476.30	33.51	0.0166364
8480.30	33.44	0.0162182
8484.30	33.37	0.0158499
8488.30	33.31	0.0155657
8492.30	33.24	0.0153425
8496.30	33.17	0.0152162
8500.30	33.11	0.0151199
8504.30	33.04	0.0150011
8508.30	32.98	0.0149302
8512.30	32.91	0.0148231
8516.30	32.84	0.0147960
8520.30	32.77	0.0147636
8524.30	32.71	0.0147422
8528.30	32.64	0.0146912
8532.30	32.57	0.0146324
8536.30	32.51	0.0146197
8540.30	32.44	0.0145971
8544.30	32.37	0.0146012
8548.30	32.31	0.0145806
8552.30	32.24	0.0145506
8556.30	32.17	0.0145806
8560.30	32.11	0.0145499
8564.30	32.04	0.0145302
8568.30	31.97	0.0145075
8572.30	31.91	0.0144916
8576.30	31.84	0.0144967
8580.30	31.77	0.0144236
8584.30	31.71	0.0144539
8588.30	31.64	0.0144482
8592.30	31.57	0.0144351
8596.30	31.51	0.0144294
8600.30	31.44	0.0144044
8604.30	31.37	0.0143395
8608.30	31.31	0.0142973
8612.30	31.24	0.0123848
8616.30	31.18	0.0382867
8620.30	31.11	0.0348532
8624.30	31.04	0.0290419
8628.30	30.98	0.0254163
8632.30	30.91	0.0233516
8636.30	30.84	0.0215270
8640.30	30.77	0.0199526
8644.30	30.71	0.0187188
8648.30	30.64	0.0178017
8652.30	30.57	0.0169856
8656.30	30.51	0.0164021
8660.30	30.44	0.0159486
8664.30	30.37	0.0155858
8668.30	30.31	0.0153071
8672.30	30.24	0.0150987
8676.30	30.17	0.0149421
8680.30	30.11	0.0148011
8684.30	30.04	0.0147084
8688.30	29.97	0.0146456
8692.30	29.91	0.0145869
8696.30	29.84	0.0145149
8700.30	29.77	0.0144618
8704.30	29.71	0.0144033
8708.30	29.64	0.0143992
8712.30	29.57	0.0143720
8716.30	29.51	0.0143304
8720.30	29.44	0.0143622
8724.30	29.37	0.0143511
8728.30	29.31	0.0143523
8732.30	29.24	0.0143504
8736.30	29.17	0.0143181
8740.30	29.11	0.0142532
8744.30	29.04	0.0142734
8748.30	28.98	0.0142197
8752.30	28.91	0.0142304
8756.30	28.84	0.0141791
8760.30	28.77	0.0142146
8764.30	28.71	0.0141691
8768.30	28.64	0.0141331
8772.30	28.57	0.0141702
8776.30	28.51	0.0141347
8780.30	28.44	0.0140771
8784.30	28.37	0.0140771
8788.30	28.31	0.0140570
8792.30	28.24	0.0140152
8796.30	28.17	0.0140122
8800.30	28.11	0.0139954
8804.30	28.04	0.0139887
8808.30	27.97	0.0140184
8812.30	27.91	0.0140151
8816.30	27.84	0.0139521
8820.30	27.77	0.0139447
8824.30	27.71	0.0139586
8828.30	27.64	0.0138784
8832.30	27.57	0.0139020
8836.30	27.51	0.0138837
8840.30	27.44	0.0139100
8844.30	27.37	0.0138653
8848.30	27.31	0.0138726
8852.30	27.24	0.0138459
8856.30	27.17	0.0138847
8860.30	27.11	0.0138636
8864.30	27.04	0.0138387
8868.30	26.97	0.0138381
8872.30	26.91	0.0138151
8876.30	26.84	0.0137906
8880.30	26.77	0.0137889
8884.30	26.71	0.0137873
8888.30	26.64	0.0138184
8892.30	26.57	0.0138042
8896.30	26.51	0.0137706
8900.30	26.44	0.0137591
8904.30	26.37	0.0137872
8908.30	26.31	0.0137373
8912.30	26.24	0.0137511
8916.30	26.17	0.0137188
8920.30	26.11	0.0136972
8924.30	26.04	0.0136805
8928.30	25.97	0.0136434
8932.30	25.91	0.0136477
8936.30	25.84	0.0136615
8940.30	25.77	0.0136101
8944.30	25.71	0.0110124
8948.30	25.64	0.0162462
8952.30	25.57	0.0164583
8956.30	25.51	0.0163387
8960.30	25.44	0.0160009
8964.30	25.37	0.0156047
8968.30	25.31	0.0151720
8972.30	25.24	0.0148272
8976.30	25.17	0.0144920
8980.30	25.11	0.0142330
8984.30	25.04	0.0141153
8988.30	24.97	0.0139987
8992.30	24.91	0.0139002
8996.30	24.84	0.0137902
9000.30	24.77	0.0136900
9004.30	24.71	0.0136679
9008.30	24.64	0.0135764
9012.30	24.57	0.0135102
9016.30	24.51	0.0135029
9020.30	24.44	0.0135970
9024.30	24.37	0.0135297
9028.30	24.31	0.0135622
9032.30	24.24	0.0135231
9036.30	24.17	0.0134227
9040.30	24.11	0.0133881
9044.30	24.04	0.0133522
9048.30	23.97	0.0133412
9052.30	23.91	0.0133350
9056.30	23.84	0.0132981
9060.30	23.77	0.0132401
9064.30	23.71	0.0132095
9068.30	23.64	0.0131784
9072.30	23.57	0.0131594
9076.30	23.51	0.0131372
9080.30	23.44	0.0131477
9084.30	23.37	0.0131372
9088.30	23.31	0.0130971
9092.30	23.24	0.0131008
9096.30	23.17	0.0130522
9100.30	23.11	0.0130677
9104.30	23.04	0.0130221
9108.30	22.97	0.0130407
9112.30	22.91	0.0130419
9116.30	22.84	0.0130587
9120.30	22.77	0.0130471
9124.30	22.71	0.0130125
9128.30	22.64	0.0130000
9132.30	22.57	0.0129808
9136.30	22.51	0.0129781
9140.30	22.44	0.0129457
9144.30	22.37	0.0129021
9148.30	22.31	0.0128567
9152.30	22.24	0.0128078
9156.30	22.17	0.0128356
9160.30	22.11	0.0128324
9164.30	22.04	0.0128185
9168.30	21.97	0.0128003
9172.30	21.91	0.0127925
9176.30	21.84	0.0127948
9180.30	21.77	0.0127600
9184.30	21.71	0.0127212
9188.30	21.64	0.0126901
9192.30	21.57	0.0127237
9196.30	21.51	0.0126803
9200.30	21.44	0.0126309
9204.30	21.37	0.0126202
9208.30	21.31	0.0125122
9212.30	21.24	0.0126985
9216.30	21.17	0.0127997
9220.30	21.11	0.0128237
9224.30	21.04	0.0127795
9228.30	20.97	0.0127666
9232.30	20.91	0.0127686
9236.30	20.84	0.0127364
9240.30	20.77	0.0127043
9244.30	20.71	0.0126080
9248.30	20.64	0.0124605
9252.30	20.57	0.0128445
9256.30	20.51	0.0130335
9260.30	20.44	0.0131635
9264.30	20.37	0.0131014
9268.30	20.31	0.0129372
9272.30	20.24	0.0128524
9276.30	20.17	0.0127444
9280.30	20.11	0.0126399
9284.30	20.04	0.0125456
9288.30	19.97	0.0125338
9292.30	19.91	0.0124047
9296.30	19.84	0.0123752
9300.30	19.77	0.0123937
9304.30	19.71	0.0123318
9308.30	19.64	0.0123362
9312.30	19.57	0.0121546
9316.30	19.51	0.0124993
9320.30	19.44	0.0125797
9324.30	19.37	0.0125907
9328.30	19.31	0.0125192
9332.30	19.24	0.0124637
9336.30	19.17	0.0123713
9340.30	19.11	0.0123093
9344.30	19.04	0.0122159
9348.30	18.97	0.0122055
9352.30	18.91	0.0122029
9356.30	18.84	0.0121467
9360.30	18.77	0.0120635
9364.30	18.71	0.0125380
9368.30	18.64	0.0127621
9372.30	18.57	0.0127511
9376.30	18.51	0.0126384
9380.30	18.44	0.0123736
9384.30	18.37	0.0126029
9388.30	18.31	0.0126231
9392.30	18.24	0.0125417
9396.30	18.17	0.0124592
9400.30	18.11	0.0123626
9404.30	18.04	0.0122478
9408.30	17.97	0.0121850
9412.30	17.91	0.0121072
9416.30	17.84	0.0120377
9420.30	17.77	0.0119963
9424.30	17.71	0.0119360
9428.30	17.64	0.0119190
9432.30	17.57	0.0119051
9436.30	17.51	0.0123874
9440.30	17.44	0.0127460
9444.30	17.37	0.0128466
9448.30	17.31	0.0126817
9452.30	17.24	0.0125559
9456.30	17.17	0.0123716
9460.30	17.11	0.0122311
9464.30	17.04	0.0121404
9468.30	16.97	0.0120225
9472.30	16.91	0.0119473
9476.30	16.84	0.0119135
9480.30	16.77	0.0118855
9484.30	16.71	0.0117959
9488.30	16.64	0.0117489
9492.30	16.57	0.0117361
9496.30	16.51	0.0117224
9500.30	16.44	0.0117462
9504.30	16.37	0.0116821
9508.30	16.31	0.0117118
9512.30	16.24	0.0116532
9516.30	16.17	0.0116283
9520.30	16.10	0.0116031
9524.30	16.04	0.0115719
9528.30	15.97	0.0115644
9532.30	15.91	0.0115102
9536.30	15.84	0.0114959
9540.30	15.77	0.0114980
9544.30	15.71	0.0113622
9548.30	15.64	0.0117909
9552.30	15.57	0.0119309
9556.30	15.51	0.0118285
9560.30	15.44	0.0118085
9564.30	15.37	0.0117249
9568.30	15.31	0.0116650
9572.30	15.24	0.0116066
9576.30	15.17	0.0115553
9580.30	15.10	0.0115252
9584.30	15.04	0.0114906
9588.30	14.97	0.0114587
9592.30	14.91	0.0114216
9596.30	14.84	0.0113720
9600.30	14.77	0.0113608
9604.30	14.71	0.0113231
9608.30	14.64	0.0113493
9612.30	14.57	0.0113156
9616.30	14.51	0.0112638
9620.30	14.44	0.0112260
9624.30	14.37	0.0112845
9628.30	14.31	0.0112609
9632.30	14.24	0.0112240
9636.30	14.17	0.0112526
9640.30	14.11	0.0112577
9644.30	14.04	0.0112688
9648.30	13.97	0.0112775
9652.30	13.91	0.0112387
9656.30	13.84	0.0111894
9660.30	13.77	0.0111416
9664.30	13.71	0.0111655
9668.30	13.64	0.0111762
9672.30	13.57	0.0111788
9676.30	13.50	0.0111120
9680.30	13.44	0.0111325
9684.30	13.37	0.0110688
9688.30	13.31	0.0110566
9692.30	13.24	0.0110435
9696.30	13.17	0.0110593
9700.30	13.11	0.0110833
9704.30	13.04	0.0110354
9708.30	12.97	0.0109926
9712.30	12.91	0.0111287
9716.30	12.84	0.0111428
9720.30	12.77	0.0111239
9724.30	12.70	0.0110703
9728.30	12.64	0.0110646
9732.30	12.57	0.0109989
9736.30	12.50	0.0109666
9740.30	12.44	0.0109505
9744.30	12.37	0.0109455
9748.30	12.31	0.0109470
9752.30	12.24	0.0109169
9756.30	12.17	0.0108540
9760.30	12.11	0.0108352
9764.30	12.04	0.0108033
9768.30	11.97	0.0108057
9772.30	11.91	0.0107925
9776.30	11.84	0.0107378
9780.30	11.77	0.0107734
9784.30	11.71	0.0107090
9788.30	11.64	0.0106737
9792.30	11.57	0.0106947
9796.30	11.51	0.0106723
9800.30	11.44	0.0107153
9804.30	11.37	0.0107108
9808.30	11.30	0.0107458
9812.30	11.24	0.0106398
9816.30	11.17	0.0107460
9820.30	11.11	0.0107531
9824.30	11.04	0.0107651
9828.30	10.97	0.0106972
9832.30	10.90	0.0107013
9836.30	10.84	0.0106247
9840.30	10.77	0.0105824
9844.30	10.71	0.0106220
9848.30	10.64	0.0106774
9852.30	10.57	0.0106952
9856.30	10.51	0.0106690
9860.30	10.44	0.0107118
9864.30	10.37	0.0108755
9868.30	10.30	0.0108558
9872.30	10.24	0.0107899
9876.30	10.17	0.0107483
9880.30	10.11	0.0105959
9884.30	10.04	0.0105339
9888.30	9.97	0.0104949
9892.30	9.90	0.0106308
9896.30	9.84	0.0106283
9900.30	9.77	0.0105402
9904.30	9.71	0.0104779
9908.30	9.64	0.0104108
9912.30	9.57	0.0104314
9916.30	9.50	0.0103849
9920.30	9.44	0.0103339
9924.30	9.37	0.0103212
9928.30	9.30	0.0102779
9932.30	9.24	0.0102719
9936.30	9.17	0.0102334
9940.30	9.10	0.0102064
9944.30	9.04	0.0101659
9948.30	8.97	0.0101954
9952.30	8.91	0.0101578
9956.30	8.84	0.0101055
9960.30	8.77	0.0100806
9964.30	8.71	0.0100758
9968.30	8.64	0.0100691
9972.30	8.57	0.0100081
9976.30	8.51	9.95451e-3
9980.30	8.44	9.94132e-3
9984.30	8.37	9.94314e-3
9988.30	8.30	9.97047e-3
9992.30	8.24	9.97644e-3
9996.30	8.17	9.95619e-3
10000.3	8.10	9.80823e-3
10004.3	8.04	9.89156e-3
10008.3	7.97	9.87813e-3
10012.3	7.91	9.83876e-3
10016.3	7.84	9.81008e-3
10020.3	7.77	9.83358e-3
10024.3	7.71	9.84842e-3
10028.3	7.64	9.82340e-3
10032.3	7.57	9.78467e-3
10036.3	7.50	9.78016e-3
10040.3	7.44	9.71208e-3
10044.3	7.37	9.66580e-3
10048.3	7.31	9.65525e-3
10052.3	7.24	9.64912e-3
10056.3	7.17	9.62798e-3
10060.3	7.11	9.56458e-3
10064.3	7.04	9.53920e-3
10068.3	6.97	9.51058e-3
10072.3	6.90	9.52533e-3
10076.3	6.84	9.50642e-3
10080.3	6.77	9.54291e-3
10084.3	6.71	9.53966e-3
10088.3	6.64	9.54048e-3
10092.3	6.57	9.52756e-3
10096.3	6.51	9.53947e-3
10100.3	6.44	9.51873e-3
10104.3	6.37	9.46176e-3
10108.3	6.31	9.41284e-3
10112.3	6.24	9.41745e-3
10116.3	6.17	9.40727e-3
10120.3	6.11	9.36390e-3
10124.3	6.04	9.38207e-3
10128.3	5.97	9.34226e-3
10132.3	5.91	9.38487e-3
10136.3	5.84	9.36390e-3
10140.3	5.77	9.35128e-3
10144.3	5.71	9.37085e-3
10148.3	5.64	9.35941e-3
10152.3	5.57	9.30954e-3
10156.3	5.51	9.35261e-3
10160.3	5.44	9.31896e-3
10164.3	5.37	9.33428e-3
10168.3	5.31	9.53713e-3
10172.3	5.24	9.79228e-3
10176.3	5.17	9.83329e-3
10180.3	5.10	9.81084e-3
10184.3	5.04	9.69741e-3
10188.3	4.97	9.58385e-3
10192.3	4.90	9.52748e-3
10196.3	4.84	9.43137e-3
10200.3	4.77	9.33553e-3
10204.3	4.70	9.33111e-3
10208.3	4.64	9.21480e-3
10212.3	4.57	9.19955e-3
10216.3	4.51	9.21247e-3
10220.3	4.44	9.25970e-3
10224.3	4.37	9.24362e-3
10228.3	4.30	9.25025e-3
10232.3	4.24	9.20753e-3
10236.3	4.17	9.15065e-3
10240.3	4.10	9.12568e-3
10244.3	4.04	9.09450e-3
10248.3	3.97	9.12900e-3
10252.3	3.91	9.06290e-3
10256.3	3.84	9.12458e-3
10260.3	3.77	9.19350e-3
10264.3	3.71	9.20053e-3
10268.3	3.64	9.21102e-3
10272.3	3.57	9.14840e-3
10276.3	3.50	9.09033e-3
10280.3	3.44	9.04381e-3
10284.3	3.37	8.99067e-3
10288.3	3.30	8.97533e-3
10292.3	3.24	8.99281e-3
10296.3	3.17	8.96459e-3
10300.3	3.10	8.96864e-3
10304.3	3.04	8.94977e-3
10308.3	2.97	8.93173e-3
10312.3	2.90	8.93781e-3
10316.3	2.84	8.88854e-3
10320.3	2.77	8.89371e-3
10324.3	2.70	8.87773e-3
10328.3	2.64	8.86191e-3
10332.3	2.57	8.89452e-3
10336.3	2.50	8.85478e-3
10340.3	2.44	8.87869e-3
10344.3	2.37	8.87846e-3
10348.3	2.30	8.83241e-3
10352.3	2.24	8.81993e-3
10356.3	2.17	8.79816e-3
10360.3	2.11	8.85810e-3
10364.3	2.04	9.03847e-3
10368.3	1.97	9.12669e-3
10372.3	1.91	9.04742e-3
10376.3	1.84	9.03028e-3
10380.3	1.77	9.05379e-3
10384.3	1.70	9.00432e-3
10388.3	1.64	8.99382e-3
10392.3	1.57	8.96108e-3
10396.3	1.50	8.96343e-3
10400.3	1.44	8.93246e-3
10404.3	1.37	8.90781e-3
10408.3	1.30	8.92214e-3
10412.3	1.24	8.89267e-3
10416.3	1.17	8.87384e-3
10420.3	1.10	8.82574e-3
10424.3	1.04	8.80913e-3
10428.3	0.97	8.81260e-3
10432.3	0.90	8.78963e-3
10436.3	0.84	8.80569e-3
10440.3	0.77	8.79089e-3
10444.3	0.70	8.77476e-3
10448.3	0.64	8.77583e-3
10452.3	0.57	8.73251e-3
10456.3	0.50	8.75747e-3
10460.3	0.44	8.76278e-3
10464.3	0.37	8.81862e-3
10468.3	0.30	9.01707e-3
10472.3	0.24	9.09589e-3
10476.3	0.17	9.11542e-3
10480.3	0.10	9.02777e-3
10484.3	0.04	9.03615e-3
10488.3	-0.03	8.97257e-3
10492.3	-0.10	8.94786e-3
10496.3	-0.16	8.91372e-3
10500.2	-0.23	8.87544e-3