File: Differential scanning calorimetry/12OCB Squalane/12OCB SqA wt fraction 288.txt
Filename	12OCBSqA288
Instrument name	DSC2A-00101 (192.168.10.4)
Operator	Yuma
rundate	3/11/2021
Sample name	12OCBSqA288
proceduresegments	Data Off ; Equilibrate 150.00 °C; Isothermal 10.0 min; Equilibrate 100.00 °C; Isothermal 5.0 min; Data On ; Ramp 1.00 °C/min to 0.00 °C; Ramp 5.00 °C/min to 150.00 °C; Data Off ; Isothermal 10.0 min; Modulate Temperature 1.00 °C for 60.0 s; Equilibrate 100.00 °C; Isothermal 10.0 min; Data On ; Ramp 1.00 °C/min to 0.00 °C; Data Off ; Equilibrate 0.00 °C; Modulate Temperature 1.00 °C for 60.0 s; Isothermal 5.0 min; Data On ; Ramp 3.00 °C/min to 100.00 °C; Jump 30.00 °C
[step]
Ramp 1.00 °C/min to 0.00 °C
Time	Temperature	Heat Flow (Normalized)
s	°C	W/g
0.00000	99.85	0.0187943
4.00000	99.84	0.0192973
8.00000	99.82	0.0121585
12.0000	99.77	9.72365e-3
16.0000	99.71	0.0167585
20.0000	99.65	0.0241002
24.0000	99.59	0.0279779
28.0000	99.52	0.0303245
32.0000	99.46	0.0322742
36.0000	99.39	0.0339593
40.0000	99.32	0.0353972
44.0000	99.26	0.0365498
48.0000	99.19	0.0373972
52.0000	99.12	0.0380896
56.0000	99.06	0.0385787
60.0000	98.99	0.0389945
64.0000	98.93	0.0392992
68.0000	98.86	0.0395355
72.0000	98.79	0.0396878
76.0000	98.72	0.0398499
80.0000	98.66	0.0399609
84.0000	98.59	0.0400929
88.0000	98.53	0.0400514
92.0000	98.46	0.0401244
96.0000	98.39	0.0401555
100.000	98.33	0.0401470
104.000	98.26	0.0401551
108.000	98.19	0.0400982
112.000	98.13	0.0401597
116.000	98.06	0.0401097
120.000	97.99	0.0401241
124.000	97.93	0.0401786
128.000	97.86	0.0401423
132.000	97.79	0.0401498
136.000	97.73	0.0401206
140.000	97.66	0.0401741
144.000	97.59	0.0401538
148.000	97.53	0.0401157
152.000	97.46	0.0400276
156.000	97.39	0.0400806
160.000	97.33	0.0401240
164.000	97.26	0.0401157
168.000	97.19	0.0401420
172.000	97.13	0.0401404
176.000	97.06	0.0401194
180.000	96.99	0.0401297
184.000	96.93	0.0400925
188.000	96.86	0.0401205
192.000	96.79	0.0401356
196.000	96.73	0.0401148
200.000	96.66	0.0401057
204.000	96.59	0.0400740
208.000	96.53	0.0400883
212.000	96.46	0.0400675
216.000	96.39	0.0400097
220.000	96.33	0.0399924
224.000	96.26	0.0399626
228.000	96.19	0.0399996
232.000	96.13	0.0399599
236.000	96.06	0.0399909
240.000	95.99	0.0400120
244.000	95.93	0.0400518
248.000	95.86	0.0400059
252.000	95.79	0.0400367
256.000	95.73	0.0400696
260.000	95.66	0.0400912
264.000	95.59	0.0400869
268.000	95.53	0.0400417
272.000	95.46	0.0400092
276.000	95.39	0.0399932
280.000	95.33	0.0399830
284.000	95.26	0.0400092
288.000	95.19	0.0399661
292.000	95.12	0.0399518
296.000	95.06	0.0399547
300.000	94.99	0.0399484
304.000	94.93	0.0399249
308.000	94.86	0.0399770
312.000	94.79	0.0399719
316.000	94.73	0.0399830
320.000	94.66	0.0399253
324.000	94.59	0.0399166
328.000	94.53	0.0398705
332.000	94.46	0.0398734
336.000	94.39	0.0399060
340.000	94.33	0.0399211
344.000	94.26	0.0399222
348.000	94.19	0.0398581
352.000	94.13	0.0398880
356.000	94.06	0.0398893
360.000	93.99	0.0398532
364.000	93.93	0.0397981
368.000	93.86	0.0398370
372.000	93.79	0.0398340
376.000	93.73	0.0398290
380.000	93.66	0.0398455
384.000	93.59	0.0398671
388.000	93.53	0.0398398
392.000	93.46	0.0398187
396.000	93.39	0.0398587
400.000	93.33	0.0398244
404.000	93.26	0.0397938
408.000	93.19	0.0397387
412.000	93.13	0.0397837
416.000	93.06	0.0397659
420.000	92.99	0.0397306
424.000	92.93	0.0397192
428.000	92.86	0.0397072
432.000	92.79	0.0397138
436.000	92.73	0.0397255
440.000	92.66	0.0397200
444.000	92.59	0.0397526
448.000	92.53	0.0397354
452.000	92.46	0.0397469
456.000	92.39	0.0397251
460.000	92.33	0.0396593
464.000	92.26	0.0396558
468.000	92.19	0.0397009
472.000	92.13	0.0396659
476.000	92.06	0.0396737
480.000	91.99	0.0396985
484.000	91.93	0.0397042
488.000	91.86	0.0397401
492.000	91.79	0.0397595
496.000	91.73	0.0396858
500.000	91.66	0.0397022
504.000	91.59	0.0396735
508.000	91.53	0.0396484
512.000	91.46	0.0397062
516.000	91.39	0.0396855
520.000	91.33	0.0397089
524.000	91.26	0.0396828
528.000	91.19	0.0396728
532.000	91.13	0.0397400
536.000	91.06	0.0397431
540.000	90.99	0.0397220
544.000	90.93	0.0397192
548.000	90.86	0.0397059
552.000	90.79	0.0397286
556.000	90.73	0.0397636
560.000	90.66	0.0397382
564.000	90.59	0.0396798
568.000	90.53	0.0396544
572.000	90.46	0.0396402
576.000	90.39	0.0396701
580.000	90.33	0.0396262
584.000	90.26	0.0396065
588.000	90.19	0.0396492
592.000	90.13	0.0396970
596.000	90.06	0.0396940
600.000	89.99	0.0396456
604.000	89.93	0.0396840
608.000	89.86	0.0396263
612.000	89.79	0.0396596
616.000	89.73	0.0396257
620.000	89.66	0.0396191
624.000	89.59	0.0396133
628.000	89.53	0.0396939
632.000	89.46	0.0396385
636.000	89.39	0.0396352
640.000	89.33	0.0395975
644.000	89.26	0.0396215
648.000	89.19	0.0396153
652.000	89.13	0.0395982
656.000	89.06	0.0395795
660.000	88.99	0.0396338
664.000	88.93	0.0396049
668.000	88.86	0.0395934
672.000	88.79	0.0395930
676.000	88.73	0.0395573
680.000	88.66	0.0395905
684.000	88.59	0.0395963
688.000	88.53	0.0396433
692.000	88.46	0.0395611
696.000	88.39	0.0395646
700.000	88.33	0.0395717
704.000	88.26	0.0395525
708.000	88.19	0.0394537
712.000	88.13	0.0394992
716.000	88.06	0.0394761
720.000	87.99	0.0394944
724.000	87.93	0.0395052
728.000	87.86	0.0395650
732.000	87.79	0.0395122
736.000	87.73	0.0394765
740.000	87.66	0.0394885
744.000	87.59	0.0394734
748.000	87.53	0.0394780
752.000	87.46	0.0395058
756.000	87.39	0.0394597
760.000	87.33	0.0394746
764.000	87.26	0.0394649
768.000	87.19	0.0394852
772.000	87.13	0.0394987
776.000	87.06	0.0394673
780.000	86.99	0.0394988
784.000	86.93	0.0394547
788.000	86.86	0.0394734
792.000	86.79	0.0395384
796.000	86.73	0.0395074
800.000	86.66	0.0394649
804.000	86.59	0.0394796
808.000	86.53	0.0394306
812.000	86.46	0.0394915
816.000	86.39	0.0394774
820.000	86.33	0.0395095
824.000	86.26	0.0395235
828.000	86.19	0.0394906
832.000	86.13	0.0395366
836.000	86.06	0.0395493
840.000	85.99	0.0396003
844.000	85.93	0.0395611
848.000	85.86	0.0395557
852.000	85.79	0.0395096
856.000	85.73	0.0394935
860.000	85.66	0.0395717
864.000	85.59	0.0395567
868.000	85.52	0.0395769
872.000	85.46	0.0395665
876.000	85.39	0.0394736
880.000	85.33	0.0394720
884.000	85.26	0.0394671
888.000	85.19	0.0394147
892.000	85.13	0.0394658
896.000	85.06	0.0395000
900.000	84.99	0.0394422
904.000	84.93	0.0394064
908.000	84.86	0.0394992
912.000	84.79	0.0394899
916.000	84.73	0.0394913
920.000	84.66	0.0394806
924.000	84.59	0.0394432
928.000	84.53	0.0394496
932.000	84.46	0.0394241
936.000	84.39	0.0394599
940.000	84.33	0.0394138
944.000	84.26	0.0393543
948.000	84.19	0.0393989
952.000	84.13	0.0394116
956.000	84.06	0.0394333
960.000	83.99	0.0394708
964.000	83.93	0.0394183
968.000	83.86	0.0394079
972.000	83.79	0.0394057
976.000	83.73	0.0394179
980.000	83.66	0.0394123
984.000	83.59	0.0394002
988.000	83.53	0.0393570
992.000	83.46	0.0393817
996.000	83.39	0.0394107
1000.00	83.33	0.0394531
1004.00	83.26	0.0394425
1008.00	83.19	0.0394120
1012.00	83.13	0.0394346
1016.00	83.06	0.0394057
1020.00	82.99	0.0393619
1024.00	82.93	0.0393653
1028.00	82.86	0.0393747
1032.00	82.79	0.0393960
1036.00	82.73	0.0394628
1040.00	82.66	0.0394057
1044.00	82.59	0.0394368
1048.00	82.53	0.0394301
1052.00	82.46	0.0394283
1056.00	82.39	0.0394633
1060.00	82.33	0.0394700
1064.00	82.26	0.0393848
1068.00	82.19	0.0394125
1072.00	82.13	0.0393684
1076.00	82.06	0.0393681
1080.00	81.99	0.0393222
1084.00	81.93	0.0393060
1088.00	81.86	0.0392782
1092.00	81.79	0.0392556
1096.00	81.73	0.0393162
1100.00	81.66	0.0393734
1104.00	81.59	0.0393771
1108.00	81.53	0.0394034
1112.00	81.46	0.0393651
1116.00	81.39	0.0393609
1120.00	81.33	0.0394085
1124.00	81.26	0.0394024
1128.00	81.19	0.0394129
1132.00	81.13	0.0394143
1136.00	81.06	0.0394740
1140.00	80.99	0.0394456
1144.00	80.93	0.0394950
1148.00	80.86	0.0394486
1152.00	80.79	0.0394532
1156.00	80.73	0.0393845
1160.00	80.66	0.0394175
1164.00	80.59	0.0393699
1168.00	80.53	0.0393957
1172.00	80.46	0.0394238
1176.00	80.39	0.0394154
1180.00	80.33	0.0393453
1184.00	80.26	0.0393986
1188.00	80.19	0.0393954
1192.00	80.13	0.0393939
1196.00	80.06	0.0393446
1200.00	79.99	0.0393762
1204.00	79.93	0.0393517
1208.00	79.86	0.0393797
1212.00	79.79	0.0394201
1216.00	79.73	0.0394544
1220.00	79.66	0.0394377
1224.00	79.59	0.0394140
1228.00	79.53	0.0394572
1232.00	79.46	0.0394511
1236.00	79.39	0.0394575
1240.00	79.33	0.0394488
1244.00	79.26	0.0394587
1248.00	79.19	0.0393613
1252.00	79.13	0.0393947
1256.00	79.06	0.0393922
1260.00	78.99	0.0394500
1264.00	78.93	0.0395035
1268.00	78.86	0.0395129
1272.00	78.79	0.0395575
1276.00	78.73	0.0395271
1280.00	78.66	0.0394906
1284.00	78.59	0.0394922
1288.00	78.53	0.0394551
1292.00	78.46	0.0394683
1296.00	78.39	0.0394226
1300.00	78.33	0.0394576
1304.00	78.26	0.0394935
1308.00	78.19	0.0394978
1312.00	78.13	0.0394717
1316.00	78.06	0.0394854
1320.00	77.99	0.0394847
1324.00	77.93	0.0394693
1328.00	77.86	0.0394800
1332.00	77.79	0.0394957
1336.00	77.73	0.0395187
1340.00	77.66	0.0394856
1344.00	77.59	0.0394868
1348.00	77.53	0.0394264
1352.00	77.46	0.0395006
1356.00	77.39	0.0394451
1360.00	77.33	0.0394464
1364.00	77.26	0.0394524
1368.00	77.19	0.0395076
1372.00	77.13	0.0395170
1376.00	77.06	0.0395567
1380.00	76.99	0.0395002
1384.00	76.93	0.0396463
1388.00	76.86	0.0396277
1392.00	76.79	0.0395766
1396.00	76.73	0.0396067
1400.00	76.66	0.0396173
1404.00	76.59	0.0395664
1408.00	76.53	0.0396143
1412.00	76.46	0.0396058
1416.00	76.39	0.0396021
1420.00	76.33	0.0395973
1424.00	76.26	0.0396564
1428.00	76.19	0.0395960
1432.00	76.13	0.0396418
1436.00	76.06	0.0396516
1440.00	75.99	0.0396409
1444.00	75.93	0.0396994
1448.00	75.86	0.0396937
1452.00	75.79	0.0396805
1456.00	75.73	0.0396541
1460.00	75.66	0.0396906
1464.00	75.59	0.0397239
1468.00	75.53	0.0397751
1472.00	75.46	0.0397660
1476.00	75.39	0.0397716
1480.00	75.33	0.0397701
1484.00	75.26	0.0398197
1488.00	75.19	0.0397889
1492.00	75.13	0.0398354
1496.00	75.06	0.0397970
1500.00	74.99	0.0397382
1504.00	74.93	0.0397443
1508.00	74.86	0.0397454
1512.00	74.79	0.0397062
1516.00	74.73	0.0397254
1520.00	74.66	0.0397057
1524.00	74.59	0.0397543
1528.00	74.53	0.0397813
1532.00	74.46	0.0397512
1536.00	74.39	0.0397543
1540.00	74.33	0.0397934
1544.00	74.26	0.0397895
1548.00	74.19	0.0398838
1552.00	74.13	0.0398640
1556.00	74.06	0.0399059
1560.00	73.99	0.0398990
1564.00	73.93	0.0399665
1568.00	73.86	0.0399337
1572.00	73.79	0.0399565
1576.00	73.73	0.0399805
1580.00	73.66	0.0400080
1584.00	73.59	0.0400404
1588.00	73.53	0.0400839
1592.00	73.46	0.0401155
1596.00	73.39	0.0401152
1600.00	73.33	0.0400912
1604.00	73.26	0.0401789
1608.00	73.19	0.0402260
1612.00	73.13	0.0402271
1616.00	73.06	0.0402521
1620.00	72.99	0.0402852
1624.00	72.93	0.0403500
1628.00	72.86	0.0403438
1632.00	72.79	0.0403888
1636.00	72.73	0.0403682
1640.00	72.66	0.0404194
1644.00	72.59	0.0403974
1648.00	72.53	0.0404226
1652.00	72.46	0.0404361
1656.00	72.39	0.0404487
1660.00	72.33	0.0404724
1664.00	72.26	0.0404739
1668.00	72.19	0.0404877
1672.00	72.13	0.0404907
1676.00	72.06	0.0406041
1680.00	71.99	0.0407748
1684.00	71.93	0.0410887
1688.00	71.86	0.0415976
1692.00	71.79	0.0422724
1696.00	71.73	0.0431188
1700.00	71.66	0.0457779
1704.00	71.60	0.0549500
1708.00	71.54	0.0722075
1712.00	71.47	0.0875169
1716.00	71.40	0.0884830
1720.00	71.34	0.0843085
1724.00	71.27	0.0827538
1728.00	71.20	0.0801740
1732.00	71.14	0.0776355
1736.00	71.07	0.0754733
1740.00	71.00	0.0739349
1744.00	70.93	0.0726580
1748.00	70.87	0.0714899
1752.00	70.80	0.0701604
1756.00	70.73	0.0691172
1760.00	70.67	0.0682649
1764.00	70.60	0.0677765
1768.00	70.53	0.0674520
1772.00	70.47	0.0670001
1776.00	70.40	0.0664130
1780.00	70.33	0.0660034
1784.00	70.27	0.0655886
1788.00	70.20	0.0652480
1792.00	70.13	0.0649080
1796.00	70.07	0.0645846
1800.00	70.00	0.0642531
1804.00	69.93	0.0639593
1808.00	69.87	0.0637416
1812.00	69.80	0.0634619
1816.00	69.73	0.0632136
1820.00	69.67	0.0630498
1824.00	69.60	0.0629799
1828.00	69.53	0.0628315
1832.00	69.47	0.0626590
1836.00	69.40	0.0624381
1840.00	69.33	0.0622090
1844.00	69.26	0.0619200
1848.00	69.20	0.0615797
1852.00	69.13	0.0613108
1856.00	69.07	0.0610355
1860.00	69.00	0.0607499
1864.00	68.93	0.0605036
1868.00	68.87	0.0603531
1872.00	68.80	0.0600826
1876.00	68.73	0.0599575
1880.00	68.67	0.0597137
1884.00	68.60	0.0595613
1888.00	68.53	0.0594864
1892.00	68.46	0.0593342
1896.00	68.40	0.0590783
1900.00	68.33	0.0588167
1904.00	68.27	0.0585936
1908.00	68.20	0.0583144
1912.00	68.13	0.0581053
1916.00	68.06	0.0579186
1920.00	68.00	0.0577089
1924.00	67.93	0.0575284
1928.00	67.87	0.0573479
1932.00	67.80	0.0572211
1936.00	67.73	0.0570301
1940.00	67.66	0.0567743
1944.00	67.60	0.0566121
1948.00	67.53	0.0564524
1952.00	67.46	0.0562236
1956.00	67.40	0.0560521
1960.00	67.33	0.0558974
1964.00	67.26	0.0557781
1968.00	67.20	0.0556731
1972.00	67.13	0.0555045
1976.00	67.06	0.0553462
1980.00	67.00	0.0551219
1984.00	66.93	0.0549252
1988.00	66.86	0.0547832
1992.00	66.80	0.0546279
1996.00	66.73	0.0544616
2000.00	66.66	0.0542847
2004.00	66.60	0.0541426
2008.00	66.53	0.0539775
2012.00	66.46	0.0538483
2016.00	66.40	0.0536922
2020.00	66.33	0.0535362
2024.00	66.26	0.0533455
2028.00	66.20	0.0532325
2032.00	66.13	0.0530394
2036.00	66.06	0.0529729
2040.00	66.00	0.0527822
2044.00	65.93	0.0526713
2048.00	65.86	0.0524891
2052.00	65.80	0.0523495
2056.00	65.73	0.0521584
2060.00	65.66	0.0520640
2064.00	65.60	0.0518773
2068.00	65.53	0.0517749
2072.00	65.46	0.0516220
2076.00	65.40	0.0515136
2080.00	65.33	0.0513794
2084.00	65.26	0.0512094
2088.00	65.20	0.0510837
2092.00	65.13	0.0508868
2096.00	65.06	0.0507409
2100.00	65.00	0.0506429
2104.00	64.93	0.0505315
2108.00	64.86	0.0503925
2112.00	64.80	0.0502458
2116.00	64.73	0.0501049
2120.00	64.66	0.0500284
2124.00	64.59	0.0498599
2128.00	64.53	0.0497315
2132.00	64.46	0.0495673
2136.00	64.40	0.0494450
2140.00	64.33	0.0492593
2144.00	64.26	0.0491245
2148.00	64.20	0.0489483
2152.00	64.13	0.0488538
2156.00	64.06	0.0487200
2160.00	64.00	0.0485840
2164.00	63.93	0.0485049
2168.00	63.86	0.0483812
2172.00	63.80	0.0482930
2176.00	63.73	0.0481237
2180.00	63.66	0.0480106
2184.00	63.60	0.0478614
2188.00	63.53	0.0476611
2192.00	63.46	0.0475403
2196.00	63.40	0.0474854
2200.00	63.33	0.0473720
2204.00	63.26	0.0472520
2208.00	63.20	0.0470952
2212.00	63.13	0.0470299
2216.00	63.06	0.0469424
2220.00	62.99	0.0468487
2224.00	62.93	0.0467453
2228.00	62.86	0.0466170
2232.00	62.79	0.0464742
2236.00	62.73	0.0463732
2240.00	62.66	0.0463117
2244.00	62.59	0.0461747
2248.00	62.53	0.0460749
2252.00	62.46	0.0459515
2256.00	62.39	0.0458686
2260.00	62.33	0.0457418
2264.00	62.26	0.0456885
2268.00	62.19	0.0456157
2272.00	62.13	0.0454471
2276.00	62.06	0.0453140
2280.00	61.99	0.0452587
2284.00	61.93	0.0451666
2288.00	61.86	0.0450453
2292.00	61.79	0.0449425
2296.00	61.73	0.0448490
2300.00	61.66	0.0447410
2304.00	61.59	0.0446154
2308.00	61.53	0.0445723
2312.00	61.46	0.0444596
2316.00	61.39	0.0443303
2320.00	61.33	0.0442345
2324.00	61.26	0.0441012
2328.00	61.19	0.0440389
2332.00	61.13	0.0439180
2336.00	61.06	0.0438719
2340.00	60.99	0.0438104
2344.00	60.93	0.0437698
2348.00	60.86	0.0437083
2352.00	60.79	0.0436333
2356.00	60.73	0.0435037
2360.00	60.66	0.0434410
2364.00	60.59	0.0433267
2368.00	60.53	0.0432777
2372.00	60.46	0.0431378
2376.00	60.39	0.0431441
2380.00	60.33	0.0430219
2384.00	60.26	0.0429299
2388.00	60.19	0.0428388
2392.00	60.13	0.0427891
2396.00	60.06	0.0426850
2400.00	59.99	0.0426156
2404.00	59.93	0.0426569
2408.00	59.86	0.0425415
2412.00	59.79	0.0424732
2416.00	59.73	0.0424241
2420.00	59.66	0.0423645
2424.00	59.59	0.0422780
2428.00	59.53	0.0421600
2432.00	59.46	0.0421095
2436.00	59.39	0.0420322
2440.00	59.33	0.0419680
2444.00	59.26	0.0418894
2448.00	59.19	0.0418601
2452.00	59.13	0.0418271
2456.00	59.06	0.0417497
2460.00	58.99	0.0417201
2464.00	58.93	0.0415953
2468.00	58.86	0.0415671
2472.00	58.79	0.0415090
2476.00	58.73	0.0415233
2480.00	58.66	0.0414053
2484.00	58.59	0.0414146
2488.00	58.53	0.0413803
2492.00	58.46	0.0413079
2496.00	58.39	0.0412662
2500.00	58.33	0.0412344
2504.00	58.26	0.0411474
2508.00	58.19	0.0411184
2512.00	58.13	0.0410608
2516.00	58.06	0.0409862
2520.00	57.99	0.0409091
2524.00	57.93	0.0409262
2528.00	57.86	0.0409001
2532.00	57.79	0.0408659
2536.00	57.73	0.0407963
2540.00	57.66	0.0407323
2544.00	57.59	0.0406915
2548.00	57.53	0.0406824
2552.00	57.46	0.0405858
2556.00	57.39	0.0404941
2560.00	57.33	0.0404811
2564.00	57.26	0.0404566
2568.00	57.19	0.0404215
2572.00	57.13	0.0403980
2576.00	57.06	0.0403123
2580.00	56.99	0.0403237
2584.00	56.93	0.0403615
2588.00	56.86	0.0402916
2592.00	56.79	0.0402038
2596.00	56.73	0.0402186
2600.00	56.66	0.0401790
2604.00	56.59	0.0401772
2608.00	56.53	0.0400977
2612.00	56.46	0.0400525
2616.00	56.39	0.0401062
2620.00	56.33	0.0401290
2624.00	56.26	0.0401424
2628.00	56.19	0.0400895
2632.00	56.13	0.0400226
2636.00	56.06	0.0399236
2640.00	55.99	0.0398816
2644.00	55.93	0.0397531
2648.00	55.86	0.0397414
2652.00	55.79	0.0397238
2656.00	55.72	0.0396716
2660.00	55.66	0.0396744
2664.00	55.59	0.0396722
2668.00	55.53	0.0396496
2672.00	55.46	0.0396283
2676.00	55.39	0.0395841
2680.00	55.33	0.0395742
2684.00	55.26	0.0395636
2688.00	55.19	0.0395600
2692.00	55.12	0.0394884
2696.00	55.06	0.0395151
2700.00	54.99	0.0395237
2704.00	54.92	0.0395079
2708.00	54.86	0.0395102
2712.00	54.79	0.0394749
2716.00	54.73	0.0394203
2720.00	54.66	0.0393462
2724.00	54.59	0.0393228
2728.00	54.52	0.0393207
2732.00	54.46	0.0392833
2736.00	54.39	0.0393177
2740.00	54.32	0.0392214
2744.00	54.26	0.0392223
2748.00	54.19	0.0392478
2752.00	54.13	0.0392305
2756.00	54.06	0.0392075
2760.00	53.99	0.0391724
2764.00	53.93	0.0391642
2768.00	53.86	0.0391279
2772.00	53.79	0.0392299
2776.00	53.73	0.0391281
2780.00	53.66	0.0391328
2784.00	53.59	0.0391203
2788.00	53.52	0.0390418
2792.00	53.46	0.0390504
2796.00	53.39	0.0389492
2800.00	53.33	0.0389347
2804.00	53.26	0.0389627
2808.00	53.19	0.0389194
2812.00	53.13	0.0389614
2816.00	53.06	0.0389095
2820.00	52.99	0.0389862
2824.00	52.93	0.0388948
2828.00	52.86	0.0388368
2832.00	52.79	0.0388809
2836.00	52.73	0.0388751
2840.00	52.66	0.0388576
2844.00	52.59	0.0387670
2848.00	52.53	0.0387806
2852.00	52.46	0.0388200
2856.00	52.39	0.0387692
2860.00	52.33	0.0387090
2864.00	52.26	0.0387069
2868.00	52.19	0.0386349
2872.00	52.12	0.0386964
2876.00	52.06	0.0387197
2880.00	51.99	0.0386863
2884.00	51.92	0.0386291
2888.00	51.86	0.0385840
2892.00	51.79	0.0385901
2896.00	51.73	0.0386072
2900.00	51.66	0.0386190
2904.00	51.59	0.0385697
2908.00	51.53	0.0385436
2912.00	51.46	0.0384892
2916.00	51.39	0.0385657
2920.00	51.33	0.0385761
2924.00	51.26	0.0385576
2928.00	51.19	0.0385510
2932.00	51.13	0.0384872
2936.00	51.06	0.0384701
2940.00	50.99	0.0384612
2944.00	50.92	0.0384726
2948.00	50.86	0.0384092
2952.00	50.79	0.0384399
2956.00	50.73	0.0384307
2960.00	50.66	0.0384022
2964.00	50.59	0.0383706
2968.00	50.52	0.0384660
2972.00	50.46	0.0384282
2976.00	50.39	0.0383450
2980.00	50.33	0.0383138
2984.00	50.26	0.0383583
2988.00	50.19	0.0383273
2992.00	50.12	0.0382435
2996.00	50.06	0.0382192
3000.00	49.99	0.0382394
3004.00	49.92	0.0382046
3008.00	49.86	0.0381790
3012.00	49.79	0.0381425
3016.00	49.73	0.0381929
3020.00	49.66	0.0380907
3024.00	49.59	0.0381066
3028.00	49.53	0.0380747
3032.00	49.46	0.0380647
3036.00	49.39	0.0381285
3040.00	49.33	0.0381168
3044.00	49.26	0.0381409
3048.00	49.19	0.0381452
3052.00	49.12	0.0381367
3056.00	49.06	0.0381041
3060.00	48.99	0.0382086
3064.00	48.93	0.0381329
3068.00	48.86	0.0380708
3072.00	48.79	0.0380936
3076.00	48.72	0.0380658
3080.00	48.66	0.0380786
3084.00	48.59	0.0380878
3088.00	48.52	0.0380088
3092.00	48.46	0.0380332
3096.00	48.39	0.0380645
3100.00	48.32	0.0379875
3104.00	48.26	0.0380076
3108.00	48.19	0.0380126
3112.00	48.12	0.0379624
3116.00	48.06	0.0379410
3120.00	47.99	0.0378987
3124.00	47.93	0.0378461
3128.00	47.86	0.0379437
3132.00	47.79	0.0382282
3136.00	47.73	0.0385230
3140.00	47.66	0.0388358
3144.00	47.59	0.0391777
3148.00	47.53	0.0393832
3152.00	47.46	0.0398942
3156.00	47.39	0.0400248
3160.00	47.35	-0.0226741
3164.00	47.43	0.0543156
3168.00	47.71	1.51184
3172.00	47.73	2.00244
3176.00	47.70	2.14223
3180.00	47.65	2.26225
3184.00	47.54	2.16488
3188.00	47.47	2.01209
3192.00	47.46	2.09696
3196.00	47.35	2.83936
3200.00	46.99	1.49989
3204.00	46.76	0.803760
3208.00	46.61	0.434643
3212.00	46.50	0.244571
3216.00	46.42	0.146233
3220.00	46.34	0.0964986
3224.00	46.27	0.0704480
3228.00	46.20	0.0591722
3232.00	46.13	0.0523248
3236.00	46.06	0.0488917
3240.00	45.99	0.0473296
3244.00	45.93	0.0463660
3248.00	45.86	0.0454801
3252.00	45.79	0.0448799
3256.00	45.73	0.0439928
3260.00	45.66	0.0432224
3264.00	45.59	0.0423131
3268.00	45.52	0.0413685
3272.00	45.46	0.0405287
3276.00	45.39	0.0397379
3280.00	45.32	0.0391039
3284.00	45.26	0.0386110
3288.00	45.19	0.0382319
3292.00	45.12	0.0379541
3296.00	45.06	0.0377011
3300.00	44.99	0.0374311
3304.00	44.92	0.0372748
3308.00	44.86	0.0371068
3312.00	44.79	0.0369671
3316.00	44.72	0.0368101
3320.00	44.66	0.0368129
3324.00	44.59	0.0369596
3328.00	44.53	0.0368794
3332.00	44.46	0.0367374
3336.00	44.39	0.0366864
3340.00	44.32	0.0367103
3344.00	44.26	0.0365376
3348.00	44.19	0.0363918
3352.00	44.12	0.0362614
3356.00	44.06	0.0361555
3360.00	43.99	0.0359956
3364.00	43.92	0.0359856
3368.00	43.86	0.0359172
3372.00	43.79	0.0357145
3376.00	43.72	0.0357578
3380.00	43.66	0.0357664
3384.00	43.59	0.0356396
3388.00	43.52	0.0355633
3392.00	43.46	0.0356031
3396.00	43.39	0.0354978
3400.00	43.32	0.0354791
3404.00	43.26	0.0354706
3408.00	43.19	0.0353901
3412.00	43.12	0.0352992
3416.00	43.06	0.0353461
3420.00	42.99	0.0353330
3424.00	42.92	0.0352434
3428.00	42.86	0.0352012
3432.00	42.79	0.0351991
3436.00	42.72	0.0351155
3440.00	42.66	0.0350860
3444.00	42.59	0.0350612
3448.00	42.52	0.0350175
3452.00	42.46	0.0350199
3456.00	42.39	0.0350103
3460.00	42.32	0.0350208
3464.00	42.26	0.0349907
3468.00	42.19	0.0350045
3472.00	42.12	0.0348691
3476.00	42.06	0.0348255
3480.00	41.99	0.0348875
3484.00	41.92	0.0348101
3488.00	41.86	0.0347704
3492.00	41.79	0.0347675
3496.00	41.72	0.0347877
3500.00	41.66	0.0346806
3504.00	41.59	0.0346287
3508.00	41.52	0.0346318
3512.00	41.46	0.0346003
3516.00	41.39	0.0345407
3520.00	41.32	0.0345567
3524.00	41.26	0.0345001
3528.00	41.19	0.0344608
3532.00	41.12	0.0344499
3536.00	41.06	0.0344300
3540.00	40.99	0.0343808
3544.00	40.92	0.0343078
3548.00	40.86	0.0342401
3552.00	40.79	0.0342363
3556.00	40.72	0.0342203
3560.00	40.66	0.0342897
3564.00	40.59	0.0341403
3568.00	40.52	0.0341338
3572.00	40.46	0.0340850
3576.00	40.39	0.0340742
3580.00	40.32	0.0340825
3584.00	40.26	0.0341167
3588.00	40.19	0.0340511
3592.00	40.12	0.0340354
3596.00	40.06	0.0340200
3600.00	39.99	0.0339848
3604.00	39.92	0.0339481
3608.00	39.86	0.0339862
3612.00	39.79	0.0340069
3616.00	39.72	0.0339661
3620.00	39.66	0.0339385
3624.00	39.59	0.0339741
3628.00	39.52	0.0339256
3632.00	39.46	0.0338553
3636.00	39.39	0.0338530
3640.00	39.32	0.0338524
3644.00	39.26	0.0337915
3648.00	39.19	0.0337925
3652.00	39.12	0.0338068
3656.00	39.06	0.0337265
3660.00	38.99	0.0337056
3664.00	38.92	0.0336793
3668.00	38.86	0.0336264
3672.00	38.79	0.0336444
3676.00	38.72	0.0335953
3680.00	38.66	0.0336140
3684.00	38.59	0.0336017
3688.00	38.52	0.0336215
3692.00	38.46	0.0335971
3696.00	38.39	0.0335693
3700.00	38.32	0.0335477
3704.00	38.26	0.0335190
3708.00	38.19	0.0335138
3712.00	38.12	0.0335111
3716.00	38.06	0.0335065
3720.00	37.99	0.0335053
3724.00	37.92	0.0334535
3728.00	37.86	0.0333973
3732.00	37.79	0.0334497
3736.00	37.72	0.0334364
3740.00	37.66	0.0333894
3744.00	37.59	0.0333508
3748.00	37.52	0.0333853
3752.00	37.46	0.0334173
3756.00	37.39	0.0333882
3760.00	37.32	0.0333476
3764.00	37.26	0.0333049
3768.00	37.19	0.0332971
3772.00	37.12	0.0333125
3776.00	37.06	0.0332590
3780.00	36.99	0.0332221
3784.00	36.92	0.0332153
3788.00	36.86	0.0332098
3792.00	36.79	0.0332013
3796.00	36.72	0.0332206
3800.00	36.66	0.0332415
3804.00	36.59	0.0332189
3808.00	36.52	0.0331954
3812.00	36.46	0.0332092
3816.00	36.39	0.0331655
3820.00	36.32	0.0331386
3824.00	36.26	0.0332221
3828.00	36.19	0.0332276
3832.00	36.12	0.0331691
3836.00	36.06	0.0331176
3840.00	35.99	0.0331396
3844.00	35.92	0.0331501
3848.00	35.86	0.0331319
3852.00	35.79	0.0331190
3856.00	35.72	0.0330675
3860.00	35.66	0.0330443
3864.00	35.59	0.0330244
3868.00	35.52	0.0330346
3872.00	35.45	0.0330764
3876.00	35.39	0.0330299
3880.00	35.32	0.0330251
3884.00	35.26	0.0330294
3888.00	35.19	0.0330327
3892.00	35.12	0.0329744
3896.00	35.06	0.0330543
3900.00	34.99	0.0329650
3904.00	34.92	0.0329630
3908.00	34.86	0.0329480
3912.00	34.79	0.0328986
3916.00	34.72	0.0329022
3920.00	34.65	0.0328928
3924.00	34.59	0.0329229
3928.00	34.52	0.0328756
3932.00	34.46	0.0328416
3936.00	34.39	0.0328251
3940.00	34.32	0.0327675
3944.00	34.26	0.0327256
3948.00	34.19	0.0327772
3952.00	34.12	0.0327768
3956.00	34.06	0.0327068
3960.00	33.99	0.0326857
3964.00	33.92	0.0326439
3968.00	33.86	0.0326258
3972.00	33.79	0.0326065
3976.00	33.72	0.0326119
3980.00	33.66	0.0325649
3984.00	33.59	0.0325544
3988.00	33.52	0.0325027
3992.00	33.46	0.0325243
3996.00	33.39	0.0325901
4000.00	33.32	0.0325797
4004.00	33.26	0.0326682
4008.00	33.19	0.0326956
4012.00	33.12	0.0326126
4016.00	33.05	0.0325605
4020.00	32.99	0.0324955
4024.00	32.92	0.0324605
4028.00	32.86	0.0324374
4032.00	32.79	0.0324587
4036.00	32.72	0.0323986
4040.00	32.65	0.0323681
4044.00	32.59	0.0323556
4048.00	32.52	0.0323455
4052.00	32.46	0.0322935
4056.00	32.39	0.0322650
4060.00	32.32	0.0322700
4064.00	32.25	0.0322677
4068.00	32.19	0.0322730
4072.00	32.12	0.0322883
4076.00	32.06	0.0323153
4080.00	31.99	0.0323198
4084.00	31.92	0.0322729
4088.00	31.85	0.0322890
4092.00	31.79	0.0322777
4096.00	31.72	0.0322385
4100.00	31.66	0.0321963
4104.00	31.59	0.0321950
4108.00	31.52	0.0321078
4112.00	31.46	0.0320862
4116.00	31.39	0.0320727
4120.00	31.32	0.0320489
4124.00	31.26	0.0320490
4128.00	31.19	0.0320287
4132.00	31.12	0.0320136
4136.00	31.05	0.0319861
4140.00	30.99	0.0320024
4144.00	30.92	0.0319795
4148.00	30.85	0.0319828
4152.00	30.79	0.0319184
4156.00	30.72	0.0319674
4160.00	30.65	0.0319282
4164.00	30.59	0.0319315
4168.00	30.52	0.0319519
4172.00	30.46	0.0319077
4176.00	30.39	0.0318226
4180.00	30.32	0.0318926
4184.00	30.25	0.0318816
4188.00	30.19	0.0318504
4192.00	30.12	0.0318478
4196.00	30.05	0.0318570
4200.00	29.99	0.0317715
4204.00	29.92	0.0317484
4208.00	29.85	0.0317840
4212.00	29.79	0.0317501
4216.00	29.72	0.0317246
4220.00	29.65	0.0317249
4224.00	29.59	0.0317279
4228.00	29.52	0.0316844
4232.00	29.45	0.0317268
4236.00	29.39	0.0316727
4240.00	29.32	0.0317008
4244.00	29.25	0.0316703
4248.00	29.19	0.0316180
4252.00	29.12	0.0316193
4256.00	29.06	0.0315957
4260.00	28.99	0.0315813
4264.00	28.92	0.0316116
4268.00	28.85	0.0316039
4272.00	28.79	0.0315761
4276.00	28.72	0.0315865
4280.00	28.65	0.0315226
4284.00	28.59	0.0315096
4288.00	28.52	0.0314641
4292.00	28.45	0.0314632
4296.00	28.39	0.0314491
4300.00	28.32	0.0314416
4304.00	28.25	0.0314032
4308.00	28.19	0.0313753
4312.00	28.12	0.0314515
4316.00	28.05	0.0314215
4320.00	27.99	0.0314090
4324.00	27.92	0.0314128
4328.00	27.85	0.0314342
4332.00	27.79	0.0313881
4336.00	27.72	0.0313583
4340.00	27.66	0.0313071
4344.00	27.59	0.0313427
4348.00	27.52	0.0312915
4352.00	27.45	0.0313039
4356.00	27.39	0.0312954
4360.00	27.32	0.0312674
4364.00	27.25	0.0312593
4368.00	27.19	0.0312694
4372.00	27.12	0.0312639
4376.00	27.05	0.0312211
4380.00	26.99	0.0312094
4384.00	26.92	0.0311646
4388.00	26.85	0.0311073
4392.00	26.79	0.0311279
4396.00	26.72	0.0311233
4400.00	26.65	0.0310759
4404.00	26.59	0.0311002
4408.00	26.52	0.0310698
4412.00	26.45	0.0310656
4416.00	26.39	0.0310927
4420.00	26.32	0.0311363
4424.00	26.25	0.0310484
4428.00	26.19	0.0309253
4432.00	26.12	0.0309351
4436.00	26.05	0.0309710
4440.00	25.99	0.0309987
4444.00	25.92	0.0310074
4448.00	25.85	0.0309610
4452.00	25.79	0.0308681
4456.00	25.72	0.0308667
4460.00	25.65	0.0307689
4464.00	25.59	0.0307994
4468.00	25.52	0.0307373
4472.00	25.45	0.0306931
4476.00	25.39	0.0306268
4480.00	25.32	0.0307257
4484.00	25.25	0.0307314
4488.00	25.19	0.0307104
4492.00	25.12	0.0307263
4496.00	25.05	0.0307753
4500.00	24.99	0.0307930
4504.00	24.92	0.0307595
4508.00	24.85	0.0307084
4512.00	24.79	0.0306889
4516.00	24.72	0.0306612
4520.00	24.65	0.0305690
4524.00	24.59	0.0305140
4528.00	24.52	0.0305383
4532.00	24.45	0.0304951
4536.00	24.39	0.0305352
4540.00	24.32	0.0305532
4544.00	24.25	0.0305435
4548.00	24.19	0.0305090
4552.00	24.12	0.0304958
4556.00	24.05	0.0304355
4560.00	23.99	0.0304284
4564.00	23.92	0.0304369
4568.00	23.85	0.0304345
4572.00	23.79	0.0303861
4576.00	23.72	0.0304509
4580.00	23.65	0.0304033
4584.00	23.59	0.0304147
4588.00	23.52	0.0304400
4592.00	23.45	0.0304164
4596.00	23.39	0.0303599
4600.00	23.32	0.0303468
4604.00	23.25	0.0303393
4608.00	23.19	0.0303205
4612.00	23.12	0.0302790
4616.00	23.05	0.0303419
4620.00	22.99	0.0304036
4624.00	22.92	0.0303268
4628.00	22.85	0.0303051
4632.00	22.79	0.0303351
4636.00	22.72	0.0303325
4640.00	22.65	0.0303586
4644.00	22.59	0.0303045
4648.00	22.52	0.0302845
4652.00	22.45	0.0302747
4656.00	22.39	0.0302596
4660.00	22.32	0.0302504
4664.00	22.25	0.0302095
4668.00	22.19	0.0302386
4672.00	22.12	0.0302217
4676.00	22.05	0.0302006
4680.00	21.99	0.0301795
4684.00	21.92	0.0301761
4688.00	21.85	0.0302052
4692.00	21.79	0.0302068
4696.00	21.72	0.0301857
4700.00	21.65	0.0301711
4704.00	21.59	0.0301846
4708.00	21.52	0.0301609
4712.00	21.45	0.0301140
4716.00	21.39	0.0301059
4720.00	21.32	0.0300951
4724.00	21.25	0.0300290
4728.00	21.19	0.0300011
4732.00	21.12	0.0300254
4736.00	21.05	0.0300252
4740.00	20.99	0.0300282
4744.00	20.92	0.0300081
4748.00	20.85	0.0299744
4752.00	20.79	0.0299197
4756.00	20.72	0.0299508
4760.00	20.65	0.0299420
4764.00	20.59	0.0299294
4768.00	20.52	0.0299522
4772.00	20.45	0.0299054
4776.00	20.39	0.0299106
4780.00	20.32	0.0298423
4784.00	20.25	0.0298231
4788.00	20.19	0.0298147
4792.00	20.12	0.0298269
4796.00	20.05	0.0298614
4800.00	19.99	0.0298027
4804.00	19.92	0.0298103
4808.00	19.85	0.0297628
4812.00	19.79	0.0297413
4816.00	19.72	0.0297710
4820.00	19.65	0.0297069
4824.00	19.59	0.0297483
4828.00	19.52	0.0297434
4832.00	19.45	0.0297087
4836.00	19.38	0.0296823
4840.00	19.32	0.0296551
4844.00	19.25	0.0296796
4848.00	19.19	0.0296323
4852.00	19.12	0.0297453
4856.00	19.05	0.0296698
4860.00	18.99	0.0296632
4864.00	18.92	0.0295659
4868.00	18.85	0.0295849
4872.00	18.78	0.0295622
4876.00	18.72	0.0295313
4880.00	18.65	0.0295381
4884.00	18.59	0.0295064
4888.00	18.52	0.0294891
4892.00	18.45	0.0295197
4896.00	18.38	0.0294072
4900.00	18.32	0.0294216
4904.00	18.25	0.0294360
4908.00	18.19	0.0294033
4912.00	18.12	0.0294248
4916.00	18.05	0.0293807
4920.00	17.99	0.0293528
4924.00	17.92	0.0293662
4928.00	17.85	0.0293147
4932.00	17.79	0.0293484
4936.00	17.72	0.0293313
4940.00	17.65	0.0293697
4944.00	17.59	0.0293207
4948.00	17.52	0.0292242
4952.00	17.45	0.0292594
4956.00	17.39	0.0292074
4960.00	17.32	0.0292000
4964.00	17.25	0.0291938
4968.00	17.19	0.0292501
4972.00	17.12	0.0292050
4976.00	17.05	0.0291934
4980.00	16.99	0.0291971
4984.00	16.92	0.0292583
4988.00	16.85	0.0292507
4992.00	16.79	0.0292091
4996.00	16.72	0.0291205
5000.00	16.65	0.0291754
5004.00	16.59	0.0291601
5008.00	16.52	0.0291548
5012.00	16.45	0.0291749
5016.00	16.39	0.0291792
5020.00	16.32	0.0292280
5024.00	16.25	0.0292180
5028.00	16.19	0.0291284
5032.00	16.12	0.0291214
5036.00	16.05	0.0291027
5040.00	15.99	0.0290674
5044.00	15.92	0.0291059
5048.00	15.85	0.0290962
5052.00	15.78	0.0290452
5056.00	15.72	0.0290439
5060.00	15.65	0.0290330
5064.00	15.58	0.0290258
5068.00	15.52	0.0290203
5072.00	15.45	0.0290256
5076.00	15.38	0.0289800
5080.00	15.32	0.0289322
5084.00	15.25	0.0289262
5088.00	15.19	0.0288787
5092.00	15.12	0.0288916
5096.00	15.05	0.0288701
5100.00	14.99	0.0288173
5104.00	14.92	0.0288575
5108.00	14.85	0.0287747
5112.00	14.79	0.0287792
5116.00	14.72	0.0287666
5120.00	14.65	0.0288179
5124.00	14.59	0.0288173
5128.00	14.52	0.0287483
5132.00	14.45	0.0287699
5136.00	14.39	0.0287825
5140.00	14.32	0.0287567
5144.00	14.25	0.0287469
5148.00	14.19	0.0287543
5152.00	14.12	0.0287043
5156.00	14.05	0.0287261
5160.00	13.99	0.0286657
5164.00	13.92	0.0286564
5168.00	13.85	0.0286536
5172.00	13.78	0.0286391
5176.00	13.72	0.0286949
5180.00	13.65	0.0286972
5184.00	13.59	0.0287115
5188.00	13.52	0.0286893
5192.00	13.45	0.0286649
5196.00	13.39	0.0286757
5200.00	13.32	0.0286288
5204.00	13.25	0.0285661
5208.00	13.18	0.0285746
5212.00	13.12	0.0285176
5216.00	13.05	0.0285061
5220.00	12.98	0.0284645
5224.00	12.92	0.0284621
5228.00	12.85	0.0285003
5232.00	12.79	0.0285163
5236.00	12.72	0.0284882
5240.00	12.65	0.0285062
5244.00	12.58	0.0285045
5248.00	12.52	0.0284990
5252.00	12.45	0.0284939
5256.00	12.39	0.0285260
5260.00	12.32	0.0284401
5264.00	12.25	0.0284539
5268.00	12.18	0.0284216
5272.00	12.12	0.0283721
5276.00	12.05	0.0283453
5280.00	11.98	0.0283442
5284.00	11.92	0.0283685
5288.00	11.85	0.0283662
5292.00	11.78	0.0283561
5296.00	11.72	0.0283826
5300.00	11.65	0.0283743
5304.00	11.59	0.0283669
5308.00	11.52	0.0283343
5312.00	11.45	0.0282323
5316.00	11.39	0.0282229
5320.00	11.32	0.0281688
5324.00	11.25	0.0282217
5328.00	11.19	0.0282009
5332.00	11.12	0.0281849
5336.00	11.05	0.0281336
5340.00	10.98	0.0281189
5344.00	10.92	0.0281378
5348.00	10.85	0.0281498
5352.00	10.78	0.0281078
5356.00	10.72	0.0280402
5360.00	10.65	0.0280619
5364.00	10.59	0.0280589
5368.00	10.52	0.0280129
5372.00	10.45	0.0280066
5376.00	10.38	0.0279847
5380.00	10.32	0.0279995
5384.00	10.25	0.0280189
5388.00	10.18	0.0279710
5392.00	10.12	0.0279559
5396.00	10.05	0.0279666
5400.00	9.98	0.0279313
5404.00	9.92	0.0279863
5408.00	9.85	0.0279178
5412.00	9.78	0.0279576
5416.00	9.72	0.0279290
5420.00	9.65	0.0279567
5424.00	9.58	0.0278963
5428.00	9.52	0.0278254
5432.00	9.45	0.0278518
5436.00	9.38	0.0278844
5440.00	9.32	0.0278497
5444.00	9.25	0.0277881
5448.00	9.18	0.0277907
5452.00	9.12	0.0278135
5456.00	9.05	0.0279061
5460.00	8.98	0.0278325
5464.00	8.92	0.0278493
5468.00	8.85	0.0278111
5472.00	8.78	0.0278296
5476.00	8.72	0.0277247
5480.00	8.65	0.0277266
5484.00	8.58	0.0277449
5488.00	8.52	0.0277168
5492.00	8.45	0.0277328
5496.00	8.38	0.0277674
5500.00	8.32	0.0277656
5504.00	8.25	0.0277462
5508.00	8.18	0.0277268
5512.00	8.12	0.0276329
5516.00	8.05	0.0276859
5520.00	7.98	0.0276691
5524.00	7.92	0.0276351
5528.00	7.85	0.0276129
5532.00	7.78	0.0276121
5536.00	7.72	0.0275705
5540.00	7.65	0.0275749
5544.00	7.59	0.0274408
5548.00	7.52	0.0274871
5552.00	7.45	0.0275043
5556.00	7.39	0.0274912
5560.00	7.32	0.0274370
5564.00	7.25	0.0273756
5568.00	7.19	0.0273888
5572.00	7.12	0.0273650
5576.00	7.05	0.0273231
5580.00	6.99	0.0272846
5584.00	6.92	0.0272740
5588.00	6.85	0.0273188
5592.00	6.78	0.0272965
5596.00	6.72	0.0272472
5600.00	6.65	0.0272498
5604.00	6.58	0.0272779
5608.00	6.52	0.0272971
5612.00	6.45	0.0272444
5616.00	6.38	0.0272217
5620.00	6.32	0.0271899
5624.00	6.25	0.0272124
5628.00	6.18	0.0272529
5632.00	6.12	0.0271866
5636.00	6.05	0.0271726
5640.00	5.98	0.0271407
5644.00	5.92	0.0271815
5648.00	5.85	0.0271232
5652.00	5.79	0.0270750
5656.00	5.72	0.0270931
5660.00	5.65	0.0270518
5664.00	5.58	0.0270588
5668.00	5.52	0.0270321
5672.00	5.45	0.0270077
5676.00	5.38	0.0270046
5680.00	5.32	0.0269816
5684.00	5.25	0.0269993
5688.00	5.18	0.0269753
5692.00	5.12	0.0269076
5696.00	5.05	0.0268746
5700.00	4.98	0.0268882
5704.00	4.92	0.0268451
5708.00	4.85	0.0268928
5712.00	4.79	0.0268316
5716.00	4.72	0.0268679
5720.00	4.65	0.0268849
5724.00	4.58	0.0268911
5728.00	4.52	0.0268960
5732.00	4.45	0.0269166
5736.00	4.39	0.0268475
5740.00	4.32	0.0267929
5744.00	4.25	0.0267666
5748.00	4.18	0.0267617
5752.00	4.12	0.0268260
5756.00	4.05	0.0268885
5760.00	3.98	0.0268217
5764.00	3.92	0.0268603
5768.00	3.85	0.0268233
5772.00	3.78	0.0268036
5776.00	3.72	0.0268167
5780.00	3.65	0.0268171
5784.00	3.58	0.0268078
5788.00	3.52	0.0267903
5792.00	3.45	0.0267682
5796.00	3.38	0.0267287
5800.00	3.32	0.0267634
5804.00	3.25	0.0267988
5808.00	3.18	0.0268224
5812.00	3.12	0.0268126
5816.00	3.05	0.0267737
5820.00	2.98	0.0267882
5824.00	2.92	0.0267539
5828.00	2.85	0.0267269
5832.00	2.78	0.0267008
5836.00	2.72	0.0267311
5840.00	2.65	0.0267028
5844.00	2.58	0.0267599
5848.00	2.52	0.0267476
5852.00	2.45	0.0268056
5856.00	2.38	0.0267688
5860.00	2.32	0.0267565
5864.00	2.25	0.0268077
5868.00	2.18	0.0267522
5872.00	2.12	0.0267460
5876.00	2.05	0.0267559
5880.00	1.98	0.0267296
5884.00	1.92	0.0267048
5888.00	1.85	0.0267740
5892.00	1.78	0.0267317
5896.00	1.72	0.0267077
5900.00	1.65	0.0267044
5904.00	1.58	0.0266276
5908.00	1.52	0.0266775
5912.00	1.45	0.0267128
5916.00	1.38	0.0267450
5920.00	1.32	0.0267219
5924.00	1.25	0.0267168
5928.00	1.18	0.0266818
5932.00	1.12	0.0267053
5936.00	1.05	0.0267746
5940.00	0.98	0.0267314
5944.00	0.92	0.0267614
5948.00	0.85	0.0267448
5952.00	0.78	0.0267776
5956.00	0.72	0.0267298
5960.00	0.65	0.0267724
5964.00	0.58	0.0267655
5968.00	0.52	0.0268242
5972.00	0.45	0.0267766
5976.00	0.38	0.0267499
5980.00	0.32	0.0268031
5984.00	0.25	0.0267993
5988.00	0.18	0.0267844
5992.00	0.12	0.0267950
5996.00	0.05	0.0268026
5999.90	-0.01	0.0267946