File: Differential scanning calorimetry/12OCB Squalane/12OCB SqA wt fraction 800.txt
Filename	12OCBSqA800
Instrument name	DSC2A-00101 (192.168.10.4)
Operator	Yuma
rundate	3/14/2021
Sample name	12OCBSqA800
proceduresegments	Data Off ; Equilibrate 150.00 °C; Isothermal 10.0 min; Equilibrate 100.00 °C; Isothermal 5.0 min; Data On ; Ramp 1.00 °C/min to 0.00 °C; Ramp 5.00 °C/min to 150.00 °C; Data Off ; Isothermal 10.0 min; Modulate Temperature 1.00 °C for 60.0 s; Equilibrate 100.00 °C; Isothermal 10.0 min; Data On ; Ramp 1.00 °C/min to 0.00 °C; Data Off ; Equilibrate 0.00 °C; Modulate Temperature 1.00 °C for 60.0 s; Isothermal 5.0 min; Data On ; Ramp 3.00 °C/min to 100.00 °C; Jump 30.00 °C
[step]
Ramp 1.00 °C/min to 0.00 °C
Time	Temperature	Heat Flow (Normalized)
s	°C	W/g
0.00000	99.85	0.0265568
4.00000	99.85	0.0279393
8.00000	99.82	0.0156777
12.0000	99.77	0.0100794
16.0000	99.71	0.0159920
20.0000	99.65	0.0241940
24.0000	99.59	0.0303543
28.0000	99.52	0.0334558
32.0000	99.46	0.0353167
36.0000	99.39	0.0371304
40.0000	99.33	0.0387565
44.0000	99.26	0.0400001
48.0000	99.19	0.0410236
52.0000	99.13	0.0418708
56.0000	99.06	0.0424696
60.0000	98.99	0.0429033
64.0000	98.93	0.0432483
68.0000	98.86	0.0434791
72.0000	98.80	0.0436735
76.0000	98.73	0.0437320
80.0000	98.66	0.0438517
84.0000	98.59	0.0439380
88.0000	98.53	0.0439945
92.0000	98.46	0.0440423
96.0000	98.39	0.0440841
100.000	98.33	0.0440666
104.000	98.26	0.0441400
108.000	98.19	0.0440909
112.000	98.13	0.0441639
116.000	98.06	0.0441143
120.000	97.99	0.0440610
124.000	97.93	0.0440322
128.000	97.86	0.0440157
132.000	97.79	0.0440310
136.000	97.73	0.0441756
140.000	97.66	0.0440732
144.000	97.59	0.0439737
148.000	97.53	0.0439657
152.000	97.46	0.0440160
156.000	97.39	0.0440002
160.000	97.33	0.0439284
164.000	97.26	0.0438654
168.000	97.19	0.0438931
172.000	97.13	0.0438384
176.000	97.06	0.0438752
180.000	96.99	0.0438533
184.000	96.93	0.0437679
188.000	96.86	0.0437215
192.000	96.79	0.0437790
196.000	96.73	0.0437833
200.000	96.66	0.0437957
204.000	96.59	0.0437735
208.000	96.53	0.0437979
212.000	96.46	0.0437507
216.000	96.40	0.0436928
220.000	96.33	0.0436652
224.000	96.26	0.0436873
228.000	96.19	0.0436082
232.000	96.13	0.0436406
236.000	96.06	0.0435760
240.000	95.99	0.0435484
244.000	95.93	0.0434647
248.000	95.86	0.0434912
252.000	95.79	0.0434819
256.000	95.73	0.0434087
260.000	95.66	0.0434027
264.000	95.59	0.0434053
268.000	95.53	0.0433446
272.000	95.46	0.0433545
276.000	95.40	0.0433001
280.000	95.33	0.0433341
284.000	95.26	0.0433975
288.000	95.19	0.0433253
292.000	95.13	0.0433823
296.000	95.06	0.0434570
300.000	94.99	0.0434472
304.000	94.93	0.0433350
308.000	94.86	0.0433195
312.000	94.79	0.0433505
316.000	94.73	0.0433073
320.000	94.66	0.0433552
324.000	94.59	0.0433512
328.000	94.53	0.0432686
332.000	94.46	0.0430180
336.000	94.39	0.0425480
340.000	94.33	0.0421958
344.000	94.26	0.0421579
348.000	94.19	0.0422015
352.000	94.13	0.0422928
356.000	94.06	0.0423092
360.000	93.99	0.0424049
364.000	93.93	0.0424701
368.000	93.86	0.0426064
372.000	93.79	0.0425965
376.000	93.73	0.0427004
380.000	93.66	0.0427800
384.000	93.59	0.0427593
388.000	93.53	0.0427647
392.000	93.46	0.0427092
396.000	93.40	0.0427891
400.000	93.33	0.0428020
404.000	93.26	0.0428008
408.000	93.19	0.0428320
412.000	93.13	0.0428383
416.000	93.06	0.0428318
420.000	92.99	0.0428737
424.000	92.93	0.0429005
428.000	92.86	0.0429316
432.000	92.79	0.0429054
436.000	92.73	0.0428776
440.000	92.66	0.0428802
444.000	92.59	0.0428580
448.000	92.53	0.0429017
452.000	92.46	0.0429091
456.000	92.39	0.0428461
460.000	92.33	0.0427702
464.000	92.26	0.0427243
468.000	92.19	0.0427978
472.000	92.13	0.0427500
476.000	92.06	0.0427643
480.000	91.99	0.0427455
484.000	91.93	0.0427925
488.000	91.86	0.0427407
492.000	91.79	0.0427158
496.000	91.73	0.0426507
500.000	91.66	0.0427010
504.000	91.59	0.0425939
508.000	91.53	0.0426097
512.000	91.46	0.0425512
516.000	91.39	0.0424871
520.000	91.33	0.0424291
524.000	91.26	0.0424824
528.000	91.19	0.0425215
532.000	91.13	0.0424865
536.000	91.06	0.0424510
540.000	90.99	0.0424448
544.000	90.93	0.0424416
548.000	90.86	0.0423972
552.000	90.79	0.0424813
556.000	90.73	0.0424516
560.000	90.66	0.0423857
564.000	90.59	0.0423955
568.000	90.53	0.0424066
572.000	90.46	0.0423871
576.000	90.39	0.0423572
580.000	90.33	0.0423093
584.000	90.26	0.0422955
588.000	90.19	0.0422359
592.000	90.13	0.0422780
596.000	90.06	0.0422529
600.000	89.99	0.0422756
604.000	89.93	0.0422749
608.000	89.86	0.0423295
612.000	89.79	0.0422487
616.000	89.73	0.0422638
620.000	89.66	0.0422517
624.000	89.59	0.0422695
628.000	89.53	0.0422098
632.000	89.46	0.0421736
636.000	89.39	0.0421939
640.000	89.33	0.0422165
644.000	89.26	0.0421513
648.000	89.19	0.0420910
652.000	89.13	0.0421105
656.000	89.06	0.0420576
660.000	88.99	0.0419814
664.000	88.93	0.0420560
668.000	88.86	0.0420009
672.000	88.79	0.0420256
676.000	88.73	0.0419637
680.000	88.66	0.0419839
684.000	88.59	0.0419199
688.000	88.53	0.0419662
692.000	88.46	0.0418975
696.000	88.39	0.0418508
700.000	88.33	0.0418912
704.000	88.26	0.0418765
708.000	88.19	0.0418172
712.000	88.13	0.0418591
716.000	88.06	0.0418063
720.000	87.99	0.0418251
724.000	87.93	0.0417814
728.000	87.86	0.0418731
732.000	87.79	0.0418605
736.000	87.73	0.0417573
740.000	87.66	0.0417660
744.000	87.59	0.0418089
748.000	87.53	0.0417159
752.000	87.46	0.0416888
756.000	87.39	0.0417267
760.000	87.33	0.0416629
764.000	87.26	0.0416833
768.000	87.19	0.0417076
772.000	87.13	0.0416180
776.000	87.06	0.0416088
780.000	86.99	0.0415739
784.000	86.93	0.0415965
788.000	86.86	0.0415596
792.000	86.79	0.0415705
796.000	86.73	0.0415572
800.000	86.66	0.0415378
804.000	86.59	0.0414658
808.000	86.53	0.0414505
812.000	86.46	0.0413951
816.000	86.39	0.0414238
820.000	86.33	0.0413883
824.000	86.26	0.0413584
828.000	86.19	0.0413702
832.000	86.13	0.0412890
836.000	86.06	0.0413147
840.000	85.99	0.0413271
844.000	85.93	0.0413015
848.000	85.86	0.0412560
852.000	85.79	0.0412673
856.000	85.73	0.0412142
860.000	85.66	0.0412558
864.000	85.59	0.0412103
868.000	85.53	0.0411868
872.000	85.46	0.0412033
876.000	85.39	0.0411657
880.000	85.33	0.0410947
884.000	85.26	0.0411387
888.000	85.19	0.0411230
892.000	85.13	0.0411205
896.000	85.06	0.0411703
900.000	84.99	0.0412025
904.000	84.93	0.0411341
908.000	84.86	0.0410570
912.000	84.79	0.0410742
916.000	84.73	0.0410478
920.000	84.66	0.0411291
924.000	84.59	0.0410745
928.000	84.53	0.0411022
932.000	84.46	0.0410723
936.000	84.39	0.0410386
940.000	84.33	0.0409844
944.000	84.26	0.0409346
948.000	84.19	0.0409015
952.000	84.13	0.0409112
956.000	84.06	0.0408860
960.000	83.99	0.0408545
964.000	83.93	0.0408923
968.000	83.86	0.0408599
972.000	83.79	0.0408535
976.000	83.73	0.0407834
980.000	83.66	0.0407800
984.000	83.59	0.0407500
988.000	83.53	0.0407597
992.000	83.46	0.0407522
996.000	83.39	0.0407191
1000.00	83.33	0.0406348
1004.00	83.26	0.0405789
1008.00	83.19	0.0404860
1012.00	83.13	0.0404054
1016.00	83.06	0.0403896
1020.00	82.99	0.0402578
1024.00	82.93	0.0402621
1028.00	82.86	0.0402879
1032.00	82.79	0.0403126
1036.00	82.73	0.0402501
1040.00	82.66	0.0403408
1044.00	82.59	0.0404564
1048.00	82.53	0.0404088
1052.00	82.46	0.0404822
1056.00	82.39	0.0405177
1060.00	82.33	0.0405050
1064.00	82.26	0.0404911
1068.00	82.19	0.0404726
1072.00	82.13	0.0404715
1076.00	82.06	0.0404712
1080.00	81.99	0.0404758
1084.00	81.93	0.0403776
1088.00	81.86	0.0404623
1092.00	81.79	0.0404818
1096.00	81.73	0.0404357
1100.00	81.66	0.0404180
1104.00	81.59	0.0403628
1108.00	81.53	0.0403868
1112.00	81.46	0.0403643
1116.00	81.39	0.0404292
1120.00	81.33	0.0404427
1124.00	81.26	0.0404339
1128.00	81.19	0.0403772
1132.00	81.13	0.0404199
1136.00	81.06	0.0404262
1140.00	80.99	0.0404199
1144.00	80.93	0.0404007
1148.00	80.86	0.0403743
1152.00	80.79	0.0404031
1156.00	80.73	0.0404026
1160.00	80.66	0.0404250
1164.00	80.59	0.0403825
1168.00	80.53	0.0402970
1172.00	80.46	0.0402205
1176.00	80.39	0.0401796
1180.00	80.33	0.0402124
1184.00	80.26	0.0402201
1188.00	80.19	0.0402220
1192.00	80.13	0.0403031
1196.00	80.06	0.0401828
1200.00	79.99	0.0402294
1204.00	79.93	0.0402161
1208.00	79.86	0.0402133
1212.00	79.79	0.0402383
1216.00	79.73	0.0401467
1220.00	79.66	0.0401955
1224.00	79.59	0.0402059
1228.00	79.53	0.0401363
1232.00	79.46	0.0400957
1236.00	79.39	0.0400698
1240.00	79.33	0.0400701
1244.00	79.26	0.0400197
1248.00	79.19	0.0401368
1252.00	79.13	0.0401221
1256.00	79.06	0.0401296
1260.00	78.99	0.0400684
1264.00	78.93	0.0400490
1268.00	78.86	0.0400755
1272.00	78.79	0.0399347
1276.00	78.73	0.0399961
1280.00	78.66	0.0400275
1284.00	78.59	0.0400284
1288.00	78.53	0.0400036
1292.00	78.46	0.0399954
1296.00	78.39	0.0399185
1300.00	78.33	0.0398852
1304.00	78.26	0.0399288
1308.00	78.19	0.0399376
1312.00	78.13	0.0398661
1316.00	78.06	0.0398441
1320.00	77.99	0.0398313
1324.00	77.93	0.0398573
1328.00	77.86	0.0398401
1332.00	77.79	0.0398122
1336.00	77.73	0.0398094
1340.00	77.66	0.0397821
1344.00	77.59	0.0397990
1348.00	77.53	0.0397422
1352.00	77.46	0.0397099
1356.00	77.39	0.0397028
1360.00	77.33	0.0396556
1364.00	77.26	0.0396331
1368.00	77.19	0.0397358
1372.00	77.13	0.0396499
1376.00	77.06	0.0396437
1380.00	76.99	0.0396739
1384.00	76.93	0.0396816
1388.00	76.86	0.0396835
1392.00	76.79	0.0396913
1396.00	76.73	0.0396822
1400.00	76.66	0.0396213
1404.00	76.59	0.0395831
1408.00	76.53	0.0395698
1412.00	76.46	0.0395203
1416.00	76.39	0.0396106
1420.00	76.33	0.0396273
1424.00	76.26	0.0396094
1428.00	76.19	0.0395481
1432.00	76.13	0.0395761
1436.00	76.06	0.0395285
1440.00	75.99	0.0395219
1444.00	75.93	0.0395480
1448.00	75.86	0.0395440
1452.00	75.79	0.0395287
1456.00	75.73	0.0395821
1460.00	75.66	0.0395683
1464.00	75.59	0.0395980
1468.00	75.53	0.0395239
1472.00	75.46	0.0395008
1476.00	75.39	0.0394462
1480.00	75.33	0.0394132
1484.00	75.26	0.0394472
1488.00	75.19	0.0394137
1492.00	75.13	0.0394134
1496.00	75.06	0.0393496
1500.00	74.99	0.0394309
1504.00	74.93	0.0393967
1508.00	74.86	0.0393777
1512.00	74.79	0.0393912
1516.00	74.73	0.0393318
1520.00	74.66	0.0393018
1524.00	74.59	0.0392774
1528.00	74.53	0.0392338
1532.00	74.46	0.0392180
1536.00	74.39	0.0392166
1540.00	74.33	0.0392220
1544.00	74.26	0.0392254
1548.00	74.19	0.0391408
1552.00	74.13	0.0391765
1556.00	74.06	0.0391479
1560.00	74.00	0.0391710
1564.00	73.93	0.0391123
1568.00	73.86	0.0390730
1572.00	73.79	0.0390295
1576.00	73.73	0.0390370
1580.00	73.66	0.0391149
1584.00	73.59	0.0391036
1588.00	73.53	0.0391244
1592.00	73.46	0.0390554
1596.00	73.39	0.0390733
1600.00	73.33	0.0390254
1604.00	73.26	0.0390496
1608.00	73.19	0.0390523
1612.00	73.13	0.0389998
1616.00	73.06	0.0389859
1620.00	72.99	0.0389989
1624.00	72.93	0.0389606
1628.00	72.86	0.0390306
1632.00	72.79	0.0390357
1636.00	72.73	0.0390240
1640.00	72.66	0.0389977
1644.00	72.59	0.0389714
1648.00	72.53	0.0389334
1652.00	72.46	0.0389200
1656.00	72.39	0.0388844
1660.00	72.33	0.0388148
1664.00	72.26	0.0387674
1668.00	72.19	0.0388313
1672.00	72.13	0.0387787
1676.00	72.06	0.0388201
1680.00	71.99	0.0387978
1684.00	71.93	0.0387647
1688.00	71.86	0.0387796
1692.00	71.79	0.0387390
1696.00	71.73	0.0387776
1700.00	71.66	0.0387769
1704.00	71.60	0.0387196
1708.00	71.53	0.0387088
1712.00	71.46	0.0386293
1716.00	71.39	0.0385831
1720.00	71.33	0.0385747
1724.00	71.26	0.0386291
1728.00	71.19	0.0385673
1732.00	71.13	0.0386302
1736.00	71.06	0.0385855
1740.00	70.99	0.0385719
1744.00	70.93	0.0384795
1748.00	70.86	0.0385099
1752.00	70.79	0.0385160
1756.00	70.73	0.0385205
1760.00	70.66	0.0384912
1764.00	70.59	0.0384698
1768.00	70.53	0.0384544
1772.00	70.46	0.0383567
1776.00	70.39	0.0383759
1780.00	70.33	0.0383330
1784.00	70.26	0.0383025
1788.00	70.19	0.0384048
1792.00	70.13	0.0383787
1796.00	70.06	0.0383481
1800.00	69.99	0.0383599
1804.00	69.93	0.0382983
1808.00	69.86	0.0382984
1812.00	69.79	0.0382545
1816.00	69.73	0.0382885
1820.00	69.66	0.0382665
1824.00	69.59	0.0382713
1828.00	69.53	0.0382350
1832.00	69.46	0.0382422
1836.00	69.39	0.0382711
1840.00	69.33	0.0382147
1844.00	69.26	0.0382424
1848.00	69.19	0.0382179
1852.00	69.13	0.0381738
1856.00	69.06	0.0381391
1860.00	68.99	0.0381971
1864.00	68.93	0.0381802
1868.00	68.86	0.0381458
1872.00	68.79	0.0381011
1876.00	68.73	0.0380415
1880.00	68.66	0.0380826
1884.00	68.59	0.0381463
1888.00	68.53	0.0380715
1892.00	68.46	0.0379909
1896.00	68.39	0.0380020
1900.00	68.33	0.0379474
1904.00	68.26	0.0379532
1908.00	68.19	0.0380590
1912.00	68.13	0.0379778
1916.00	68.06	0.0378986
1920.00	67.99	0.0379257
1924.00	67.93	0.0379475
1928.00	67.86	0.0380076
1932.00	67.79	0.0379381
1936.00	67.73	0.0379656
1940.00	67.66	0.0379850
1944.00	67.59	0.0379410
1948.00	67.53	0.0379456
1952.00	67.46	0.0378959
1956.00	67.39	0.0378352
1960.00	67.33	0.0378155
1964.00	67.26	0.0377469
1968.00	67.19	0.0377080
1972.00	67.13	0.0377409
1976.00	67.06	0.0377547
1980.00	66.99	0.0377684
1984.00	66.93	0.0377068
1988.00	66.86	0.0377130
1992.00	66.79	0.0376876
1996.00	66.73	0.0376974
2000.00	66.66	0.0377108
2004.00	66.59	0.0377266
2008.00	66.53	0.0377152
2012.00	66.46	0.0376356
2016.00	66.39	0.0377030
2020.00	66.33	0.0376748
2024.00	66.26	0.0376912
2028.00	66.19	0.0376785
2032.00	66.13	0.0375646
2036.00	66.06	0.0375466
2040.00	65.99	0.0375825
2044.00	65.93	0.0375466
2048.00	65.86	0.0375783
2052.00	65.79	0.0375745
2056.00	65.73	0.0374837
2060.00	65.66	0.0375026
2064.00	65.59	0.0375248
2068.00	65.53	0.0374823
2072.00	65.46	0.0374497
2076.00	65.39	0.0374041
2080.00	65.33	0.0374160
2084.00	65.26	0.0374024
2088.00	65.19	0.0373418
2092.00	65.13	0.0374021
2096.00	65.06	0.0373596
2100.00	64.99	0.0373590
2104.00	64.93	0.0373943
2108.00	64.86	0.0374058
2112.00	64.79	0.0373805
2116.00	64.73	0.0373297
2120.00	64.66	0.0373062
2124.00	64.59	0.0372634
2128.00	64.53	0.0372654
2132.00	64.46	0.0372087
2136.00	64.39	0.0373170
2140.00	64.33	0.0372313
2144.00	64.26	0.0372278
2148.00	64.19	0.0372665
2152.00	64.13	0.0372831
2156.00	64.06	0.0372447
2160.00	63.99	0.0372242
2164.00	63.93	0.0371598
2168.00	63.86	0.0371800
2172.00	63.79	0.0371318
2176.00	63.73	0.0371234
2180.00	63.66	0.0370913
2184.00	63.59	0.0371161
2188.00	63.53	0.0369659
2192.00	63.46	0.0369492
2196.00	63.39	0.0369431
2200.00	63.33	0.0370510
2204.00	63.26	0.0371146
2208.00	63.19	0.0370972
2212.00	63.13	0.0371023
2216.00	63.06	0.0369690
2220.00	62.99	0.0369806
2224.00	62.93	0.0370425
2228.00	62.86	0.0369706
2232.00	62.79	0.0369745
2236.00	62.73	0.0369044
2240.00	62.66	0.0369721
2244.00	62.59	0.0369542
2248.00	62.53	0.0369140
2252.00	62.46	0.0369151
2256.00	62.39	0.0368670
2260.00	62.33	0.0368230
2264.00	62.26	0.0367717
2268.00	62.19	0.0367861
2272.00	62.13	0.0368521
2276.00	62.06	0.0368030
2280.00	61.99	0.0368340
2284.00	61.93	0.0368314
2288.00	61.86	0.0368333
2292.00	61.79	0.0368620
2296.00	61.73	0.0368061
2300.00	61.66	0.0368450
2304.00	61.59	0.0368108
2308.00	61.53	0.0367509
2312.00	61.46	0.0367157
2316.00	61.39	0.0366874
2320.00	61.33	0.0367403
2324.00	61.26	0.0367211
2328.00	61.19	0.0366110
2332.00	61.13	0.0366112
2336.00	61.06	0.0365723
2340.00	60.99	0.0365662
2344.00	60.93	0.0365692
2348.00	60.86	0.0365504
2352.00	60.79	0.0365734
2356.00	60.73	0.0365075
2360.00	60.66	0.0365646
2364.00	60.59	0.0366114
2368.00	60.53	0.0366100
2372.00	60.46	0.0365315
2376.00	60.39	0.0365314
2380.00	60.33	0.0365437
2384.00	60.26	0.0364938
2388.00	60.19	0.0364443
2392.00	60.13	0.0364920
2396.00	60.06	0.0365022
2400.00	59.99	0.0364979
2404.00	59.93	0.0365384
2408.00	59.86	0.0364890
2412.00	59.79	0.0364699
2416.00	59.73	0.0364990
2420.00	59.66	0.0365566
2424.00	59.59	0.0364696
2428.00	59.53	0.0364784
2432.00	59.46	0.0364515
2436.00	59.39	0.0364546
2440.00	59.33	0.0364582
2444.00	59.26	0.0364234
2448.00	59.19	0.0364188
2452.00	59.13	0.0363886
2456.00	59.06	0.0363013
2460.00	58.99	0.0363009
2464.00	58.93	0.0362277
2468.00	58.86	0.0362483
2472.00	58.79	0.0362439
2476.00	58.73	0.0362883
2480.00	58.66	0.0362556
2484.00	58.59	0.0362754
2488.00	58.53	0.0361661
2492.00	58.46	0.0361475
2496.00	58.39	0.0361965
2500.00	58.33	0.0361715
2504.00	58.26	0.0361638
2508.00	58.19	0.0361135
2512.00	58.13	0.0361129
2516.00	58.06	0.0361818
2520.00	57.99	0.0361181
2524.00	57.93	0.0361543
2528.00	57.86	0.0361721
2532.00	57.79	0.0361979
2536.00	57.73	0.0361319
2540.00	57.66	0.0361106
2544.00	57.59	0.0361252
2548.00	57.53	0.0361269
2552.00	57.46	0.0360888
2556.00	57.39	0.0360740
2560.00	57.33	0.0360766
2564.00	57.26	0.0360328
2568.00	57.19	0.0359840
2572.00	57.13	0.0359898
2576.00	57.06	0.0359470
2580.00	56.99	0.0359746
2584.00	56.93	0.0359614
2588.00	56.86	0.0359571
2592.00	56.79	0.0359718
2596.00	56.73	0.0358952
2600.00	56.66	0.0358235
2604.00	56.59	0.0358820
2608.00	56.53	0.0358846
2612.00	56.46	0.0359106
2616.00	56.39	0.0357934
2620.00	56.33	0.0358169
2624.00	56.26	0.0358226
2628.00	56.19	0.0358705
2632.00	56.13	0.0358242
2636.00	56.06	0.0357692
2640.00	55.99	0.0357541
2644.00	55.93	0.0357814
2648.00	55.86	0.0357194
2652.00	55.79	0.0357435
2656.00	55.73	0.0357671
2660.00	55.66	0.0357977
2664.00	55.59	0.0357434
2668.00	55.53	0.0357569
2672.00	55.46	0.0357117
2676.00	55.39	0.0356954
2680.00	55.33	0.0357011
2684.00	55.26	0.0357524
2688.00	55.19	0.0356718
2692.00	55.13	0.0356644
2696.00	55.06	0.0356450
2700.00	54.99	0.0356449
2704.00	54.93	0.0355766
2708.00	54.86	0.0355914
2712.00	54.79	0.0356129
2716.00	54.73	0.0355563
2720.00	54.66	0.0356113
2724.00	54.59	0.0355625
2728.00	54.53	0.0355355
2732.00	54.46	0.0354784
2736.00	54.39	0.0355860
2740.00	54.33	0.0354841
2744.00	54.26	0.0355048
2748.00	54.19	0.0355429
2752.00	54.12	0.0355176
2756.00	54.06	0.0354974
2760.00	53.99	0.0355189
2764.00	53.93	0.0356398
2768.00	53.86	0.0358262
2772.00	53.79	0.0360749
2776.00	53.73	0.0365053
2780.00	53.66	0.0370664
2784.00	53.59	0.0376097
2788.00	53.53	0.0381573
2792.00	53.46	0.0386811
2796.00	53.39	0.0391867
2800.00	53.33	0.0397309
2804.00	53.26	0.0403172
2808.00	53.19	0.0407221
2812.00	53.13	0.0410174
2816.00	53.06	0.0411245
2820.00	52.99	0.0411542
2824.00	52.93	0.0411006
2828.00	52.86	0.0409822
2832.00	52.79	0.0409312
2836.00	52.73	0.0408863
2840.00	52.66	0.0408612
2844.00	52.59	0.0407951
2848.00	52.53	0.0408061
2852.00	52.46	0.0407405
2856.00	52.39	0.0406823
2860.00	52.33	0.0406405
2864.00	52.26	0.0406717
2868.00	52.19	0.0406489
2872.00	52.13	0.0406291
2876.00	52.06	0.0405349
2880.00	51.99	0.0404401
2884.00	51.93	0.0404461
2888.00	51.86	0.0404729
2892.00	51.79	0.0404522
2896.00	51.73	0.0403949
2900.00	51.66	0.0403320
2904.00	51.59	0.0403159
2908.00	51.53	0.0403139
2912.00	51.46	0.0402298
2916.00	51.39	0.0402752
2920.00	51.33	0.0401846
2924.00	51.26	0.0402767
2928.00	51.19	0.0401702
2932.00	51.13	0.0400364
2936.00	51.06	0.0400068
2940.00	50.99	0.0400859
2944.00	50.93	0.0400046
2948.00	50.86	0.0399198
2952.00	50.79	0.0398155
2956.00	50.73	0.0398714
2960.00	50.66	0.0399141
2964.00	50.59	0.0398012
2968.00	50.53	0.0396593
2972.00	50.46	0.0396282
2976.00	50.39	0.0396375
2980.00	50.33	0.0395831
2984.00	50.26	0.0395740
2988.00	50.19	0.0395259
2992.00	50.13	0.0395471
2996.00	50.06	0.0395165
3000.00	49.99	0.0393847
3004.00	49.93	0.0394191
3008.00	49.86	0.0393299
3012.00	49.79	0.0393439
3016.00	49.73	0.0393536
3020.00	49.66	0.0393154
3024.00	49.59	0.0391547
3028.00	49.53	0.0390938
3032.00	49.46	0.0390530
3036.00	49.39	0.0391050
3040.00	49.33	0.0390633
3044.00	49.26	0.0390325
3048.00	49.19	0.0389948
3052.00	49.13	0.0389860
3056.00	49.06	0.0390324
3060.00	48.99	0.0389416
3064.00	48.93	0.0388379
3068.00	48.86	0.0388103
3072.00	48.79	0.0387617
3076.00	48.73	0.0387885
3080.00	48.66	0.0387364
3084.00	48.59	0.0387941
3088.00	48.53	0.0387541
3092.00	48.46	0.0387197
3096.00	48.39	0.0386794
3100.00	48.33	0.0386117
3104.00	48.26	0.0386511
3108.00	48.19	0.0385638
3112.00	48.13	0.0385465
3116.00	48.06	0.0383723
3120.00	47.99	0.0383740
3124.00	47.93	0.0382213
3128.00	47.86	0.0381515
3132.00	47.79	0.0381248
3136.00	47.73	0.0381192
3140.00	47.66	0.0381969
3144.00	47.59	0.0381916
3148.00	47.53	0.0381080
3152.00	47.46	0.0381192
3156.00	47.39	0.0381310
3160.00	47.33	0.0382218
3164.00	47.26	0.0382302
3168.00	47.19	0.0381432
3172.00	47.13	0.0380770
3176.00	47.06	0.0379933
3180.00	46.99	0.0379705
3184.00	46.93	0.0379594
3188.00	46.86	0.0379026
3192.00	46.79	0.0378924
3196.00	46.73	0.0378781
3200.00	46.66	0.0378665
3204.00	46.59	0.0378148
3208.00	46.53	0.0376883
3212.00	46.46	0.0376201
3216.00	46.39	0.0376314
3220.00	46.33	0.0376051
3224.00	46.26	0.0375587
3228.00	46.19	0.0375313
3232.00	46.12	0.0375032
3236.00	46.06	0.0375095
3240.00	45.99	0.0375486
3244.00	45.93	0.0374652
3248.00	45.86	0.0374178
3252.00	45.79	0.0374141
3256.00	45.73	0.0373963
3260.00	45.66	0.0373610
3264.00	45.59	0.0373136
3268.00	45.53	0.0373145
3272.00	45.46	0.0372943
3276.00	45.39	0.0373229
3280.00	45.33	0.0373112
3284.00	45.26	0.0373163
3288.00	45.19	0.0371232
3292.00	45.13	0.0371264
3296.00	45.06	0.0370459
3300.00	44.99	0.0370706
3304.00	44.93	0.0370110
3308.00	44.86	0.0369988
3312.00	44.79	0.0370168
3316.00	44.73	0.0370291
3320.00	44.66	0.0369954
3324.00	44.59	0.0369564
3328.00	44.53	0.0370129
3332.00	44.46	0.0370130
3336.00	44.39	0.0369665
3340.00	44.33	0.0369059
3344.00	44.26	0.0368756
3348.00	44.19	0.0369187
3352.00	44.13	0.0368963
3356.00	44.06	0.0368460
3360.00	43.99	0.0368471
3364.00	43.93	0.0368299
3368.00	43.86	0.0368344
3372.00	43.79	0.0368111
3376.00	43.72	0.0367935
3380.00	43.66	0.0365489
3384.00	43.59	0.0357576
3388.00	43.55	-0.0113180
3392.00	43.59	0.375031
3396.00	43.58	0.622907
3400.00	43.52	0.797612
3404.00	43.44	0.736376
3408.00	43.37	0.697357
3412.00	43.30	0.696804
3416.00	43.20	0.666879
3420.00	43.07	0.424165
3424.00	42.97	0.243899
3428.00	42.88	0.149824
3432.00	42.80	0.0969767
3436.00	42.73	0.0716470
3440.00	42.66	0.0579183
3444.00	42.59	0.0509687
3448.00	42.53	0.0482163
3452.00	42.46	0.0464697
3456.00	42.39	0.0448979
3460.00	42.33	0.0437423
3464.00	42.26	0.0427040
3468.00	42.19	0.0418303
3472.00	42.13	0.0412509
3476.00	42.06	0.0406673
3480.00	41.99	0.0402399
3484.00	41.93	0.0398605
3488.00	41.86	0.0396164
3492.00	41.79	0.0394032
3496.00	41.73	0.0391965
3500.00	41.66	0.0390835
3504.00	41.59	0.0389019
3508.00	41.53	0.0387561
3512.00	41.46	0.0385737
3516.00	41.39	0.0385068
3520.00	41.33	0.0384117
3524.00	41.26	0.0384759
3528.00	41.19	0.0383421
3532.00	41.13	0.0382565
3536.00	41.06	0.0381434
3540.00	40.99	0.0380495
3544.00	40.92	0.0379341
3548.00	40.86	0.0378983
3552.00	40.79	0.0377816
3556.00	40.73	0.0377027
3560.00	40.66	0.0376660
3564.00	40.59	0.0375623
3568.00	40.53	0.0374275
3572.00	40.46	0.0374732
3576.00	40.39	0.0373957
3580.00	40.33	0.0373694
3584.00	40.26	0.0373042
3588.00	40.19	0.0373830
3592.00	40.12	0.0373300
3596.00	40.06	0.0372220
3600.00	39.99	0.0371877
3604.00	39.92	0.0371044
3608.00	39.86	0.0371095
3612.00	39.79	0.0370710
3616.00	39.72	0.0369746
3620.00	39.66	0.0368777
3624.00	39.59	0.0369536
3628.00	39.53	0.0368077
3632.00	39.46	0.0367339
3636.00	39.39	0.0366389
3640.00	39.33	0.0365710
3644.00	39.26	0.0365771
3648.00	39.19	0.0365234
3652.00	39.12	0.0364787
3656.00	39.06	0.0365025
3660.00	38.99	0.0364408
3664.00	38.92	0.0363732
3668.00	38.86	0.0362771
3672.00	38.79	0.0362418
3676.00	38.73	0.0361704
3680.00	38.66	0.0360440
3684.00	38.59	0.0359428
3688.00	38.53	0.0359594
3692.00	38.46	0.0359866
3696.00	38.39	0.0358967
3700.00	38.32	0.0359132
3704.00	38.26	0.0358820
3708.00	38.19	0.0358411
3712.00	38.12	0.0357531
3716.00	38.06	0.0357210
3720.00	37.99	0.0356706
3724.00	37.92	0.0356434
3728.00	37.86	0.0355819
3732.00	37.79	0.0355250
3736.00	37.73	0.0354630
3740.00	37.66	0.0354571
3744.00	37.59	0.0354246
3748.00	37.52	0.0354650
3752.00	37.46	0.0353282
3756.00	37.39	0.0352876
3760.00	37.32	0.0352848
3764.00	37.26	0.0352822
3768.00	37.19	0.0352688
3772.00	37.12	0.0351800
3776.00	37.06	0.0350999
3780.00	36.99	0.0350149
3784.00	36.92	0.0349134
3788.00	36.86	0.0349636
3792.00	36.79	0.0349709
3796.00	36.72	0.0348928
3800.00	36.66	0.0348613
3804.00	36.59	0.0347790
3808.00	36.52	0.0347178
3812.00	36.46	0.0346378
3816.00	36.39	0.0347128
3820.00	36.32	0.0347073
3824.00	36.26	0.0346324
3828.00	36.19	0.0346174
3832.00	36.12	0.0345475
3836.00	36.06	0.0344940
3840.00	35.99	0.0345066
3844.00	35.92	0.0344910
3848.00	35.86	0.0344360
3852.00	35.79	0.0343539
3856.00	35.72	0.0343563
3860.00	35.66	0.0343063
3864.00	35.59	0.0342860
3868.00	35.52	0.0342433
3872.00	35.46	0.0342651
3876.00	35.39	0.0342648
3880.00	35.32	0.0342380
3884.00	35.26	0.0341935
3888.00	35.19	0.0340565
3892.00	35.12	0.0340248
3896.00	35.06	0.0339664
3900.00	34.99	0.0339677
3904.00	34.92	0.0338515
3908.00	34.86	0.0338648
3912.00	34.79	0.0337123
3916.00	34.72	0.0337255
3920.00	34.66	0.0337384
3924.00	34.59	0.0337272
3928.00	34.52	0.0337332
3932.00	34.46	0.0336788
3936.00	34.39	0.0337375
3940.00	34.32	0.0336698
3944.00	34.26	0.0336273
3948.00	34.19	0.0335921
3952.00	34.12	0.0335791
3956.00	34.06	0.0335281
3960.00	33.99	0.0334381
3964.00	33.92	0.0333793
3968.00	33.86	0.0334744
3972.00	33.79	0.0334876
3976.00	33.72	0.0334346
3980.00	33.66	0.0334021
3984.00	33.59	0.0333494
3988.00	33.52	0.0332900
3992.00	33.46	0.0332698
3996.00	33.39	0.0332376
4000.00	33.32	0.0332210
4004.00	33.26	0.0331412
4008.00	33.19	0.0331289
4012.00	33.12	0.0330864
4016.00	33.06	0.0330657
4020.00	32.99	0.0330699
4024.00	32.92	0.0330216
4028.00	32.86	0.0330482
4032.00	32.79	0.0329732
4036.00	32.72	0.0330135
4040.00	32.66	0.0329705
4044.00	32.59	0.0328946
4048.00	32.52	0.0329324
4052.00	32.46	0.0328929
4056.00	32.39	0.0328832
4060.00	32.32	0.0328016
4064.00	32.26	0.0327727
4068.00	32.19	0.0327446
4072.00	32.12	0.0326727
4076.00	32.06	0.0327001
4080.00	31.99	0.0326540
4084.00	31.92	0.0326710
4088.00	31.86	0.0326209
4092.00	31.79	0.0325214
4096.00	31.72	0.0325861
4100.00	31.66	0.0325742
4104.00	31.59	0.0325531
4108.00	31.52	0.0325309
4112.00	31.46	0.0325104
4116.00	31.39	0.0324802
4120.00	31.32	0.0324790
4124.00	31.26	0.0324537
4128.00	31.19	0.0324677
4132.00	31.12	0.0324293
4136.00	31.06	0.0324168
4140.00	30.99	0.0324485
4144.00	30.92	0.0323759
4148.00	30.86	0.0323952
4152.00	30.79	0.0324158
4156.00	30.72	0.0323605
4160.00	30.66	0.0323069
4164.00	30.59	0.0323599
4168.00	30.52	0.0323318
4172.00	30.46	0.0323197
4176.00	30.39	0.0323114
4180.00	30.32	0.0323326
4184.00	30.26	0.0322285
4188.00	30.19	0.0321936
4192.00	30.12	0.0320901
4196.00	30.06	0.0321083
4200.00	29.99	0.0320806
4204.00	29.92	0.0320414
4208.00	29.86	0.0319616
4212.00	29.79	0.0320229
4216.00	29.72	0.0319862
4220.00	29.66	0.0319820
4224.00	29.59	0.0318899
4228.00	29.52	0.0319717
4232.00	29.46	0.0319018
4236.00	29.39	0.0318837
4240.00	29.32	0.0318567
4244.00	29.25	0.0318809
4248.00	29.19	0.0318350
4252.00	29.12	0.0317970
4256.00	29.05	0.0317769
4260.00	28.99	0.0317372
4264.00	28.92	0.0317752
4268.00	28.86	0.0317439
4272.00	28.79	0.0317348
4276.00	28.72	0.0316968
4280.00	28.65	0.0316643
4284.00	28.59	0.0316484
4288.00	28.52	0.0315529
4292.00	28.46	0.0316039
4296.00	28.39	0.0315823
4300.00	28.32	0.0315503
4304.00	28.26	0.0315366
4308.00	28.19	0.0315117
4312.00	28.12	0.0315814
4316.00	28.06	0.0315632
4320.00	27.99	0.0315319
4324.00	27.92	0.0314435
4328.00	27.86	0.0314749
4332.00	27.79	0.0314985
4336.00	27.72	0.0314883
4340.00	27.66	0.0314450
4344.00	27.59	0.0314028
4348.00	27.52	0.0314148
4352.00	27.46	0.0314426
4356.00	27.39	0.0313755
4360.00	27.32	0.0313425
4364.00	27.26	0.0312817
4368.00	27.19	0.0313674
4372.00	27.12	0.0312823
4376.00	27.05	0.0312825
4380.00	26.99	0.0312641
4384.00	26.92	0.0312670
4388.00	26.85	0.0312420
4392.00	26.79	0.0312484
4396.00	26.72	0.0312267
4400.00	26.65	0.0311915
4404.00	26.59	0.0311768
4408.00	26.52	0.0311759
4412.00	26.46	0.0311512
4416.00	26.39	0.0310588
4420.00	26.32	0.0310310
4424.00	26.26	0.0310221
4428.00	26.19	0.0309944
4432.00	26.12	0.0309422
4436.00	26.06	0.0309514
4440.00	25.99	0.0309576
4444.00	25.92	0.0309312
4448.00	25.86	0.0308628
4452.00	25.79	0.0308012
4456.00	25.72	0.0308528
4460.00	25.66	0.0308284
4464.00	25.59	0.0308648
4468.00	25.52	0.0308609
4472.00	25.46	0.0308310
4476.00	25.39	0.0307933
4480.00	25.32	0.0307259
4484.00	25.26	0.0307333
4488.00	25.19	0.0307090
4492.00	25.12	0.0307545
4496.00	25.06	0.0306913
4500.00	24.99	0.0306624
4504.00	24.92	0.0307754
4508.00	24.86	0.0307104
4512.00	24.79	0.0307147
4516.00	24.72	0.0307089
4520.00	24.66	0.0307049
4524.00	24.59	0.0306579
4528.00	24.52	0.0306645
4532.00	24.45	0.0305958
4536.00	24.39	0.0306475
4540.00	24.32	0.0305816
4544.00	24.25	0.0305487
4548.00	24.19	0.0304817
4552.00	24.12	0.0305042
4556.00	24.05	0.0305116
4560.00	23.99	0.0304835
4564.00	23.92	0.0304632
4568.00	23.85	0.0304333
4572.00	23.79	0.0304152
4576.00	23.72	0.0303816
4580.00	23.65	0.0303323
4584.00	23.59	0.0302935
4588.00	23.52	0.0302561
4592.00	23.45	0.0302550
4596.00	23.39	0.0302103
4600.00	23.32	0.0301294
4604.00	23.26	0.0301385
4608.00	23.19	0.0301467
4612.00	23.12	0.0301855
4616.00	23.06	0.0301081
4620.00	22.99	0.0300849
4624.00	22.92	0.0300958
4628.00	22.85	0.0300378
4632.00	22.79	0.0300273
4636.00	22.72	0.0300799
4640.00	22.65	0.0300720
4644.00	22.59	0.0299596
4648.00	22.52	0.0299465
4652.00	22.45	0.0299287
4656.00	22.39	0.0299234
4660.00	22.32	0.0299075
4664.00	22.25	0.0298786
4668.00	22.19	0.0298017
4672.00	22.12	0.0298266
4676.00	22.06	0.0297444
4680.00	21.99	0.0297885
4684.00	21.92	0.0297683
4688.00	21.85	0.0297780
4692.00	21.79	0.0297255
4696.00	21.72	0.0296646
4700.00	21.65	0.0296372
4704.00	21.59	0.0295605
4708.00	21.52	0.0296045
4712.00	21.45	0.0296942
4716.00	21.39	0.0295966
4720.00	21.32	0.0295199
4724.00	21.25	0.0294719
4728.00	21.19	0.0294953
4732.00	21.12	0.0294892
4736.00	21.05	0.0294717
4740.00	20.99	0.0294895
4744.00	20.92	0.0294825
4748.00	20.85	0.0294235
4752.00	20.79	0.0294096
4756.00	20.72	0.0294197
4760.00	20.65	0.0294339
4764.00	20.59	0.0293642
4768.00	20.52	0.0293918
4772.00	20.45	0.0293961
4776.00	20.39	0.0293274
4780.00	20.32	0.0292204
4784.00	20.25	0.0292601
4788.00	20.19	0.0291821
4792.00	20.12	0.0291796
4796.00	20.06	0.0290649
4800.00	19.99	0.0291109
4804.00	19.92	0.0291089
4808.00	19.85	0.0291222
4812.00	19.79	0.0290417
4816.00	19.72	0.0290534
4820.00	19.66	0.0290905
4824.00	19.59	0.0290471
4828.00	19.52	0.0290542
4832.00	19.45	0.0290173
4836.00	19.39	0.0290133
4840.00	19.32	0.0290096
4844.00	19.25	0.0290748
4848.00	19.19	0.0290524
4852.00	19.12	0.0290627
4856.00	19.05	0.0290218
4860.00	18.99	0.0289431
4864.00	18.92	0.0289807
4868.00	18.85	0.0289115
4872.00	18.79	0.0288085
4876.00	18.72	0.0287558
4880.00	18.65	0.0288422
4884.00	18.59	0.0288631
4888.00	18.52	0.0287494
4892.00	18.45	0.0287411
4896.00	18.39	0.0286858
4900.00	18.32	0.0287047
4904.00	18.25	0.0287536
4908.00	18.19	0.0287069
4912.00	18.12	0.0286607
4916.00	18.05	0.0285570
4920.00	17.99	0.0284802
4924.00	17.92	0.0285518
4928.00	17.85	0.0285581
4932.00	17.79	0.0285157
4936.00	17.72	0.0284736
4940.00	17.65	0.0284774
4944.00	17.59	0.0285685
4948.00	17.52	0.0285158
4952.00	17.45	0.0284555
4956.00	17.39	0.0284836
4960.00	17.32	0.0283485
4964.00	17.25	0.0283888
4968.00	17.19	0.0282681
4972.00	17.12	0.0282749
4976.00	17.05	0.0282546
4980.00	16.99	0.0283557
4984.00	16.92	0.0282605
4988.00	16.85	0.0282202
4992.00	16.79	0.0281425
4996.00	16.72	0.0280196
5000.00	16.66	0.0280326
5004.00	16.59	0.0280355
5008.00	16.52	0.0280780
5012.00	16.45	0.0280327
5016.00	16.39	0.0280600
5020.00	16.32	0.0280300
5024.00	16.25	0.0280284
5028.00	16.19	0.0280632
5032.00	16.12	0.0279810
5036.00	16.05	0.0279628
5040.00	15.99	0.0280103
5044.00	15.92	0.0279340
5048.00	15.85	0.0279227
5052.00	15.78	0.0279914
5056.00	15.72	0.0279346
5060.00	15.65	0.0279964
5064.00	15.59	0.0279209
5068.00	15.52	0.0278365
5072.00	15.45	0.0277782
5076.00	15.39	0.0278767
5080.00	15.32	0.0277364
5084.00	15.25	0.0277916
5088.00	15.19	0.0278138
5092.00	15.12	0.0278118
5096.00	15.05	0.0277699
5100.00	14.99	0.0277667
5104.00	14.92	0.0276526
5108.00	14.85	0.0277224
5112.00	14.79	0.0277431
5116.00	14.72	0.0277041
5120.00	14.65	0.0276701
5124.00	14.59	0.0276715
5128.00	14.52	0.0276546
5132.00	14.45	0.0276148
5136.00	14.39	0.0275391
5140.00	14.32	0.0274491
5144.00	14.25	0.0274697
5148.00	14.19	0.0275139
5152.00	14.12	0.0274911
5156.00	14.05	0.0274966
5160.00	13.99	0.0274721
5164.00	13.92	0.0274012
5168.00	13.85	0.0273673
5172.00	13.79	0.0273763
5176.00	13.72	0.0274155
5180.00	13.65	0.0272767
5184.00	13.59	0.0272756
5188.00	13.52	0.0272363
5192.00	13.45	0.0271915
5196.00	13.39	0.0271693
5200.00	13.32	0.0272043
5204.00	13.25	0.0271975
5208.00	13.19	0.0271341
5212.00	13.12	0.0271155
5216.00	13.05	0.0270813
5220.00	12.99	0.0270863
5224.00	12.92	0.0271049
5228.00	12.85	0.0270986
5232.00	12.79	0.0272031
5236.00	12.72	0.0271907
5240.00	12.65	0.0270943
5244.00	12.59	0.0271057
5248.00	12.52	0.0270551
5252.00	12.45	0.0270243
5256.00	12.39	0.0269721
5260.00	12.32	0.0269646
5264.00	12.25	0.0268900
5268.00	12.19	0.0269664
5272.00	12.12	0.0269441
5276.00	12.05	0.0268980
5280.00	11.99	0.0268997
5284.00	11.92	0.0268408
5288.00	11.85	0.0268325
5292.00	11.79	0.0268434
5296.00	11.72	0.0268775
5300.00	11.65	0.0268346
5304.00	11.59	0.0267465
5308.00	11.52	0.0267982
5312.00	11.45	0.0267378
5316.00	11.39	0.0266806
5320.00	11.32	0.0266928
5324.00	11.25	0.0266824
5328.00	11.19	0.0266269
5332.00	11.12	0.0266683
5336.00	11.05	0.0266173
5340.00	10.99	0.0266314
5344.00	10.92	0.0265633
5348.00	10.85	0.0266161
5352.00	10.79	0.0266859
5356.00	10.72	0.0265895
5360.00	10.65	0.0266254
5364.00	10.59	0.0266311
5368.00	10.52	0.0266361
5372.00	10.45	0.0265390
5376.00	10.39	0.0265996
5380.00	10.32	0.0265223
5384.00	10.25	0.0265916
5388.00	10.19	0.0264979
5392.00	10.12	0.0264577
5396.00	10.05	0.0264282
5400.00	9.99	0.0264085
5404.00	9.92	0.0264127
5408.00	9.85	0.0263339
5412.00	9.79	0.0263798
5416.00	9.72	0.0263318
5420.00	9.65	0.0263268
5424.00	9.59	0.0263174
5428.00	9.52	0.0263181
5432.00	9.45	0.0263497
5436.00	9.39	0.0262866
5440.00	9.32	0.0262721
5444.00	9.25	0.0261861
5448.00	9.19	0.0262069
5452.00	9.12	0.0262519
5456.00	9.05	0.0262008
5460.00	8.99	0.0262508
5464.00	8.92	0.0261834
5468.00	8.85	0.0261760
5472.00	8.79	0.0260854
5476.00	8.72	0.0260225
5480.00	8.65	0.0259651
5484.00	8.59	0.0260081
5488.00	8.52	0.0259877
5492.00	8.45	0.0260461
5496.00	8.38	0.0259255
5500.00	8.32	0.0258957
5504.00	8.25	0.0259320
5508.00	8.19	0.0259272
5512.00	8.12	0.0258654
5516.00	8.05	0.0258374
5520.00	7.99	0.0257888
5524.00	7.92	0.0258640
5528.00	7.85	0.0258027
5532.00	7.78	0.0257923
5536.00	7.72	0.0258241
5540.00	7.65	0.0258455
5544.00	7.58	0.0257599
5548.00	7.52	0.0257363
5552.00	7.45	0.0257936
5556.00	7.38	0.0257632
5560.00	7.32	0.0256707
5564.00	7.25	0.0256330
5568.00	7.19	0.0256616
5572.00	7.12	0.0256670
5576.00	7.05	0.0255914
5580.00	6.99	0.0254865
5584.00	6.92	0.0254119
5588.00	6.85	0.0255011
5592.00	6.79	0.0254437
5596.00	6.72	0.0254607
5600.00	6.65	0.0254126
5604.00	6.58	0.0253434
5608.00	6.52	0.0252952
5612.00	6.45	0.0252966
5616.00	6.38	0.0253740
5620.00	6.32	0.0253557
5624.00	6.25	0.0252968
5628.00	6.18	0.0252966
5632.00	6.12	0.0253331
5636.00	6.05	0.0252103
5640.00	5.99	0.0252287
5644.00	5.92	0.0251335
5648.00	5.85	0.0251367
5652.00	5.79	0.0250083
5656.00	5.72	0.0249315
5660.00	5.65	0.0249986
5664.00	5.59	0.0249765
5668.00	5.52	0.0250140
5672.00	5.45	0.0250221
5676.00	5.39	0.0249393
5680.00	5.32	0.0249470
5684.00	5.25	0.0249565
5688.00	5.19	0.0249357
5692.00	5.12	0.0248835
5696.00	5.05	0.0248827
5700.00	4.99	0.0248849
5704.00	4.92	0.0248817
5708.00	4.85	0.0248767
5712.00	4.78	0.0248669
5716.00	4.72	0.0248340
5720.00	4.65	0.0248355
5724.00	4.58	0.0248412
5728.00	4.52	0.0248375
5732.00	4.45	0.0247780
5736.00	4.39	0.0248068
5740.00	4.32	0.0247286
5744.00	4.25	0.0246498
5748.00	4.18	0.0246675
5752.00	4.12	0.0246813
5756.00	4.05	0.0245959
5760.00	3.98	0.0245624
5764.00	3.92	0.0245754
5768.00	3.85	0.0246051
5772.00	3.78	0.0246101
5776.00	3.72	0.0246589
5780.00	3.65	0.0245969
5784.00	3.59	0.0245420
5788.00	3.52	0.0245757
5792.00	3.45	0.0245952
5796.00	3.38	0.0245912
5800.00	3.32	0.0245566
5804.00	3.25	0.0244615
5808.00	3.19	0.0244862
5812.00	3.12	0.0245176
5816.00	3.05	0.0244647
5820.00	2.99	0.0244519
5824.00	2.92	0.0244809
5828.00	2.85	0.0244792
5832.00	2.79	0.0244409
5836.00	2.72	0.0244479
5840.00	2.65	0.0245225
5844.00	2.59	0.0244894
5848.00	2.52	0.0245147
5852.00	2.45	0.0245435
5856.00	2.38	0.0244802
5860.00	2.32	0.0244536
5864.00	2.25	0.0245027
5868.00	2.18	0.0244654
5872.00	2.12	0.0244999
5876.00	2.05	0.0244758
5880.00	1.98	0.0244912
5884.00	1.92	0.0244952
5888.00	1.85	0.0244271
5892.00	1.78	0.0243995
5896.00	1.72	0.0243423
5900.00	1.65	0.0243703
5904.00	1.58	0.0244161
5908.00	1.52	0.0243882
5912.00	1.45	0.0243848
5916.00	1.38	0.0243389
5920.00	1.32	0.0243913
5924.00	1.25	0.0242932
5928.00	1.18	0.0242992
5932.00	1.12	0.0241640
5936.00	1.05	0.0241604
5940.00	0.98	0.0242025
5944.00	0.92	0.0242351
5948.00	0.85	0.0242610
5952.00	0.78	0.0243258
5956.00	0.72	0.0242429
5960.00	0.65	0.0241586
5964.00	0.58	0.0242292
5968.00	0.52	0.0241632
5972.00	0.45	0.0241857
5976.00	0.38	0.0242840
5980.00	0.32	0.0242275
5984.00	0.25	0.0243103
5988.00	0.18	0.0242592
5992.00	0.12	0.0243799
5996.00	0.05	0.0242339
5999.90	-0.01	0.0242883