File: Differential scanning calorimetry/12OCB Squalene/12OCB SqE wt fraction 458.txt
Filename	Sq12OCB458
Instrument name	DSC2A-00101 (192.168.10.4)
Operator	Yuma
rundate	2/3/2021
Sample name	Sq12OCB458
proceduresegments	Jump 100.00 °C; Isothermal 10.0 min; Jump 0.00 °C; Isothermal 5.0 min; Mark End of Cycle ; Ramp 5.00 °C/min to 100.00 °C; Mark End of Cycle ; Ramp 5.00 °C/min to 0.00 °C; Mark End of Cycle ; Ramp 5.00 °C/min to 100.00 °C; Mark End of Cycle ; Ramp 1.00 °C/min to 0.00 °C; Mark End of Cycle ; Ramp 5.00 °C/min to 100.00 °C; Mark End of Cycle ; Ramp 10.00 °C/min to 0.00 °C; Mark End of Cycle ; Ramp 10.00 °C/min to 100.00 °C; Mark End of Cycle ; Jump 0.00 °C; Mark End of Cycle
[step]
Ramp 1.00 °C/min to 0.00 °C
Time	Temperature	Heat Flow (Normalized)
s	°C	W/g
4500.30	98.88	-0.156573
4504.30	99.19	-0.165424
4508.30	99.37	-0.212991
4512.30	99.43	-0.142242
4516.30	99.44	-0.0762990
4520.30	99.41	-0.0334423
4524.30	99.37	-7.39661e-3
4528.30	99.31	8.06256e-3
4532.30	99.25	0.0166623
4536.30	99.19	0.0212500
4540.30	99.12	0.0236970
4544.30	99.06	0.0250135
4548.30	98.99	0.0257185
4552.30	98.93	0.0263175
4556.30	98.86	0.0268332
4560.30	98.80	0.0272759
4564.30	98.73	0.0276246
4568.30	98.66	0.0278968
4572.30	98.60	0.0280905
4576.30	98.53	0.0282644
4580.30	98.46	0.0283904
4584.30	98.40	0.0284814
4588.30	98.33	0.0285468
4592.30	98.26	0.0285932
4596.30	98.20	0.0286389
4600.30	98.13	0.0286738
4604.30	98.06	0.0286871
4608.30	98.00	0.0287279
4612.30	97.93	0.0287471
4616.30	97.86	0.0287738
4620.30	97.80	0.0287969
4624.30	97.73	0.0287971
4628.30	97.67	0.0287749
4632.30	97.60	0.0287943
4636.30	97.53	0.0287986
4640.30	97.47	0.0288145
4644.30	97.40	0.0288061
4648.30	97.33	0.0288044
4652.30	97.27	0.0288234
4656.30	97.20	0.0288080
4660.30	97.13	0.0287988
4664.30	97.07	0.0287914
4668.30	97.00	0.0288057
4672.30	96.93	0.0288101
4676.30	96.87	0.0288266
4680.30	96.80	0.0288174
4684.30	96.73	0.0288213
4688.30	96.66	0.0287916
4692.30	96.60	0.0287975
4696.30	96.53	0.0288331
4700.30	96.47	0.0288288
4704.30	96.40	0.0288062
4708.30	96.33	0.0288189
4712.30	96.27	0.0288204
4716.30	96.20	0.0287955
4720.30	96.13	0.0288062
4724.30	96.07	0.0288056
4728.30	96.00	0.0288272
4732.30	95.93	0.0288440
4736.30	95.86	0.0288485
4740.30	95.80	0.0288529
4744.30	95.73	0.0288431
4748.30	95.67	0.0288552
4752.30	95.60	0.0288620
4756.30	95.53	0.0288602
4760.30	95.47	0.0288650
4764.30	95.40	0.0288634
4768.30	95.33	0.0288536
4772.30	95.27	0.0288724
4776.30	95.20	0.0288890
4780.30	95.13	0.0288828
4784.30	95.07	0.0288886
4788.30	95.00	0.0288982
4792.30	94.93	0.0289025
4796.30	94.87	0.0289166
4800.30	94.80	0.0288986
4804.30	94.73	0.0289198
4808.30	94.67	0.0289100
4812.30	94.60	0.0288866
4816.30	94.53	0.0288856
4820.30	94.47	0.0288944
4824.30	94.40	0.0288961
4828.30	94.33	0.0288975
4832.30	94.27	0.0288996
4836.30	94.20	0.0288820
4840.30	94.13	0.0289116
4844.30	94.07	0.0289424
4848.30	94.00	0.0289318
4852.30	93.93	0.0289208
4856.30	93.87	0.0289038
4860.30	93.80	0.0288915
4864.30	93.73	0.0288984
4868.30	93.67	0.0288968
4872.30	93.60	0.0289102
4876.30	93.53	0.0288920
4880.30	93.47	0.0289052
4884.30	93.40	0.0288961
4888.30	93.33	0.0288807
4892.30	93.27	0.0288646
4896.30	93.20	0.0288814
4900.30	93.13	0.0289124
4904.30	93.07	0.0289278
4908.30	93.00	0.0289201
4912.30	92.93	0.0289129
4916.30	92.87	0.0289235
4920.30	92.80	0.0289432
4924.30	92.73	0.0289542
4928.30	92.67	0.0289453
4932.30	92.60	0.0289132
4936.30	92.53	0.0289008
4940.30	92.47	0.0289116
4944.30	92.40	0.0289181
4948.30	92.33	0.0289466
4952.30	92.27	0.0289297
4956.30	92.20	0.0289123
4960.30	92.13	0.0289020
4964.30	92.07	0.0289070
4968.30	92.00	0.0289267
4972.30	91.93	0.0289480
4976.30	91.87	0.0289706
4980.30	91.80	0.0289667
4984.30	91.73	0.0289702
4988.30	91.67	0.0289746
4992.30	91.60	0.0289935
4996.30	91.53	0.0290048
5000.30	91.47	0.0290191
5004.30	91.40	0.0290010
5008.30	91.33	0.0289842
5012.30	91.27	0.0289731
5016.30	91.20	0.0289465
5020.30	91.13	0.0289281
5024.30	91.07	0.0289544
5028.30	91.00	0.0289480
5032.30	90.93	0.0289458
5036.30	90.87	0.0289479
5040.30	90.80	0.0289528
5044.30	90.73	0.0289395
5048.30	90.67	0.0289570
5052.30	90.60	0.0289451
5056.30	90.53	0.0289592
5060.30	90.47	0.0289839
5064.30	90.40	0.0289895
5068.30	90.33	0.0290039
5072.30	90.27	0.0289946
5076.30	90.20	0.0289996
5080.30	90.13	0.0289975
5084.30	90.07	0.0290092
5088.30	90.00	0.0290249
5092.30	89.93	0.0290341
5096.30	89.87	0.0290182
5100.30	89.80	0.0290240
5104.30	89.73	0.0290279
5108.30	89.67	0.0290381
5112.30	89.60	0.0290396
5116.30	89.53	0.0290294
5120.30	89.47	0.0290423
5124.30	89.40	0.0290443
5128.30	89.33	0.0290312
5132.30	89.27	0.0290249
5136.30	89.20	0.0290318
5140.30	89.13	0.0290246
5144.30	89.07	0.0290416
5148.30	89.00	0.0290602
5152.30	88.93	0.0290563
5156.30	88.87	0.0290625
5160.30	88.80	0.0290725
5164.30	88.73	0.0290862
5168.30	88.67	0.0290641
5172.30	88.60	0.0290884
5176.30	88.53	0.0290938
5180.30	88.47	0.0290983
5184.30	88.40	0.0290861
5188.30	88.33	0.0290921
5192.30	88.27	0.0291119
5196.30	88.20	0.0290956
5200.30	88.14	0.0290888
5204.30	88.07	0.0290815
5208.30	88.00	0.0291012
5212.30	87.93	0.0291066
5216.30	87.87	0.0290826
5220.30	87.80	0.0291030
5224.30	87.73	0.0291124
5228.30	87.67	0.0291060
5232.30	87.60	0.0290984
5236.30	87.53	0.0290783
5240.30	87.47	0.0291007
5244.30	87.40	0.0290971
5248.30	87.34	0.0291016
5252.30	87.27	0.0291261
5256.30	87.20	0.0291228
5260.30	87.13	0.0291396
5264.30	87.07	0.0291190
5268.30	87.00	0.0291207
5272.30	86.93	0.0291447
5276.30	86.87	0.0291332
5280.30	86.80	0.0291544
5284.30	86.73	0.0291591
5288.30	86.67	0.0291804
5292.30	86.60	0.0291752
5296.30	86.54	0.0291954
5300.30	86.47	0.0291785
5304.30	86.40	0.0291539
5308.30	86.34	0.0291742
5312.30	86.27	0.0291662
5316.30	86.20	0.0291758
5320.30	86.14	0.0291713
5324.30	86.07	0.0291479
5328.30	86.00	0.0291602
5332.30	85.94	0.0291660
5336.30	85.87	0.0291568
5340.30	85.80	0.0291591
5344.30	85.73	0.0291698
5348.30	85.67	0.0291784
5352.30	85.60	0.0291798
5356.30	85.53	0.0292100
5360.30	85.47	0.0291904
5364.30	85.40	0.0291983
5368.30	85.33	0.0291986
5372.30	85.27	0.0291999
5376.30	85.20	0.0292312
5380.30	85.14	0.0292341
5384.30	85.07	0.0292399
5388.30	85.00	0.0292247
5392.30	84.93	0.0292173
5396.30	84.87	0.0292295
5400.30	84.80	0.0292402
5404.30	84.73	0.0292330
5408.30	84.67	0.0292363
5412.30	84.60	0.0292380
5416.30	84.53	0.0292540
5420.30	84.47	0.0292829
5424.30	84.40	0.0292770
5428.30	84.34	0.0292753
5432.30	84.27	0.0292641
5436.30	84.20	0.0292673
5440.30	84.14	0.0293034
5444.30	84.07	0.0293169
5448.30	84.00	0.0293343
5452.30	83.93	0.0293344
5456.30	83.87	0.0293490
5460.30	83.80	0.0293544
5464.30	83.73	0.0293520
5468.30	83.67	0.0293490
5472.30	83.60	0.0293610
5476.30	83.53	0.0293424
5480.30	83.47	0.0293343
5484.30	83.40	0.0293344
5488.30	83.33	0.0293359
5492.30	83.27	0.0293388
5496.30	83.20	0.0293288
5500.30	83.14	0.0293238
5504.30	83.07	0.0293267
5508.30	83.00	0.0293561
5512.30	82.93	0.0293551
5516.30	82.87	0.0293598
5520.30	82.80	0.0293348
5524.30	82.74	0.0293148
5528.30	82.67	0.0293074
5532.30	82.60	0.0293078
5536.30	82.53	0.0293210
5540.30	82.47	0.0293218
5544.30	82.40	0.0293133
5548.30	82.34	0.0293146
5552.30	82.27	0.0293353
5556.30	82.20	0.0293758
5560.30	82.14	0.0293740
5564.30	82.07	0.0293488
5568.30	82.00	0.0293608
5572.30	81.93	0.0293537
5576.30	81.87	0.0293750
5580.30	81.80	0.0293898
5584.30	81.74	0.0294034
5588.30	81.67	0.0294145
5592.30	81.60	0.0294054
5596.30	81.53	0.0294027
5600.30	81.47	0.0293947
5604.30	81.40	0.0294016
5608.30	81.34	0.0293790
5612.30	81.27	0.0293660
5616.30	81.20	0.0293788
5620.30	81.14	0.0293970
5624.30	81.07	0.0294131
5628.30	81.00	0.0293902
5632.30	80.94	0.0293799
5636.30	80.87	0.0293845
5640.30	80.80	0.0293791
5644.30	80.73	0.0293729
5648.30	80.67	0.0293816
5652.30	80.60	0.0293898
5656.30	80.54	0.0293985
5660.30	80.47	0.0294040
5664.30	80.40	0.0294119
5668.30	80.33	0.0294282
5672.30	80.27	0.0294055
5676.30	80.20	0.0293873
5680.30	80.13	0.0293860
5684.30	80.07	0.0293659
5688.30	80.00	0.0293745
5692.30	79.94	0.0294024
5696.30	79.87	0.0294235
5700.30	79.80	0.0294279
5704.30	79.73	0.0294334
5708.30	79.67	0.0294523
5712.30	79.60	0.0294461
5716.30	79.54	0.0294701
5720.30	79.47	0.0294962
5724.30	79.40	0.0294794
5728.30	79.34	0.0294879
5732.30	79.27	0.0294682
5736.30	79.20	0.0294780
5740.30	79.14	0.0294863
5744.30	79.07	0.0294943
5748.30	79.00	0.0294967
5752.30	78.94	0.0294951
5756.30	78.87	0.0294797
5760.30	78.80	0.0294739
5764.30	78.74	0.0294868
5768.30	78.67	0.0294782
5772.30	78.60	0.0294765
5776.30	78.54	0.0294778
5780.30	78.47	0.0294672
5784.30	78.40	0.0294824
5788.30	78.34	0.0294832
5792.30	78.27	0.0294930
5796.30	78.20	0.0294998
5800.30	78.14	0.0294952
5804.30	78.07	0.0294910
5808.30	78.00	0.0295159
5812.30	77.94	0.0295057
5816.30	77.87	0.0295089
5820.30	77.80	0.0294987
5824.30	77.74	0.0295089
5828.30	77.67	0.0295103
5832.30	77.60	0.0294920
5836.30	77.54	0.0295148
5840.30	77.47	0.0295203
5844.30	77.40	0.0295264
5848.30	77.34	0.0295446
5852.30	77.27	0.0295273
5856.30	77.20	0.0295245
5860.30	77.14	0.0295102
5864.30	77.07	0.0294952
5868.30	77.00	0.0294861
5872.30	76.93	0.0294941
5876.30	76.87	0.0295021
5880.30	76.80	0.0295125
5884.30	76.74	0.0295053
5888.30	76.67	0.0295075
5892.30	76.60	0.0295270
5896.30	76.54	0.0295175
5900.30	76.47	0.0295170
5904.30	76.40	0.0295265
5908.30	76.33	0.0295242
5912.30	76.27	0.0295075
5916.30	76.20	0.0294942
5920.30	76.14	0.0295085
5924.30	76.07	0.0295083
5928.30	76.00	0.0295241
5932.30	75.94	0.0295352
5936.30	75.87	0.0295334
5940.30	75.80	0.0295170
5944.30	75.74	0.0294998
5948.30	75.67	0.0295145
5952.30	75.60	0.0295116
5956.30	75.54	0.0295314
5960.30	75.47	0.0295238
5964.30	75.40	0.0294994
5968.30	75.34	0.0294979
5972.30	75.27	0.0295185
5976.30	75.20	0.0295376
5980.30	75.14	0.0295470
5984.30	75.07	0.0295511
5988.30	75.00	0.0295708
5992.30	74.94	0.0295600
5996.30	74.87	0.0295682
6000.30	74.80	0.0295544
6004.30	74.74	0.0295680
6008.30	74.67	0.0295799
6012.30	74.60	0.0295744
6016.30	74.54	0.0295792
6020.30	74.47	0.0295593
6024.30	74.40	0.0295546
6028.30	74.34	0.0295457
6032.30	74.27	0.0295560
6036.30	74.20	0.0295478
6040.30	74.14	0.0295496
6044.30	74.07	0.0295569
6048.30	74.00	0.0295631
6052.30	73.94	0.0295673
6056.30	73.87	0.0295429
6060.30	73.80	0.0295474
6064.30	73.74	0.0295704
6068.30	73.67	0.0295893
6072.30	73.60	0.0295746
6076.30	73.54	0.0296021
6080.30	73.47	0.0296073
6084.30	73.40	0.0296223
6088.30	73.34	0.0296154
6092.30	73.27	0.0295933
6096.30	73.20	0.0295769
6100.30	73.14	0.0296008
6104.30	73.07	0.0296317
6108.30	73.00	0.0296267
6112.30	72.94	0.0296146
6116.30	72.87	0.0296287
6120.30	72.80	0.0296317
6124.30	72.74	0.0296142
6128.30	72.67	0.0295987
6132.30	72.60	0.0295941
6136.30	72.54	0.0296019
6140.30	72.47	0.0295998
6144.30	72.40	0.0296269
6148.30	72.34	0.0296376
6152.30	72.27	0.0296109
6156.30	72.20	0.0295863
6160.30	72.14	0.0295797
6164.30	72.07	0.0295966
6168.30	72.00	0.0295951
6172.30	71.94	0.0295987
6176.30	71.87	0.0295921
6180.30	71.80	0.0295992
6184.30	71.74	0.0296069
6188.30	71.67	0.0296318
6192.30	71.60	0.0296267
6196.30	71.54	0.0296503
6200.30	71.47	0.0296423
6204.30	71.40	0.0296534
6208.30	71.34	0.0296384
6212.30	71.27	0.0296418
6216.30	71.20	0.0296273
6220.30	71.14	0.0296171
6224.30	71.07	0.0296225
6228.30	71.00	0.0296389
6232.30	70.94	0.0296198
6236.30	70.87	0.0296262
6240.30	70.80	0.0296541
6244.30	70.74	0.0296541
6248.30	70.67	0.0296506
6252.30	70.60	0.0296714
6256.30	70.54	0.0296696
6260.30	70.47	0.0296717
6264.30	70.40	0.0296935
6268.30	70.34	0.0296957
6272.30	70.27	0.0296503
6276.30	70.20	0.0296320
6280.30	70.14	0.0296255
6284.30	70.07	0.0296219
6288.30	70.00	0.0296412
6292.30	69.94	0.0296463
6296.30	69.87	0.0296651
6300.30	69.80	0.0296847
6304.30	69.74	0.0296931
6308.30	69.67	0.0297114
6312.30	69.60	0.0296997
6316.30	69.54	0.0297185
6320.30	69.47	0.0297170
6324.30	69.40	0.0297045
6328.30	69.34	0.0297265
6332.30	69.27	0.0297217
6336.30	69.20	0.0297280
6340.30	69.14	0.0297222
6344.30	69.07	0.0297189
6348.30	69.00	0.0297221
6352.30	68.94	0.0297351
6356.30	68.87	0.0297239
6360.30	68.80	0.0297206
6364.30	68.74	0.0297179
6368.30	68.67	0.0297126
6372.30	68.60	0.0297196
6376.30	68.54	0.0296961
6380.30	68.47	0.0297070
6384.30	68.40	0.0297028
6388.30	68.34	0.0297119
6392.30	68.27	0.0297158
6396.30	68.20	0.0297175
6400.30	68.14	0.0297144
6404.30	68.07	0.0297255
6408.30	68.00	0.0297592
6412.30	67.94	0.0297534
6416.30	67.87	0.0297423
6420.30	67.80	0.0297435
6424.30	67.74	0.0297629
6428.30	67.67	0.0297578
6432.30	67.60	0.0297680
6436.30	67.54	0.0297729
6440.30	67.47	0.0297750
6444.30	67.40	0.0297648
6448.30	67.34	0.0297840
6452.30	67.27	0.0297810
6456.30	67.20	0.0297851
6460.30	67.14	0.0298074
6464.30	67.07	0.0297992
6468.30	67.00	0.0298071
6472.30	66.94	0.0297947
6476.30	66.87	0.0297941
6480.30	66.80	0.0298010
6484.30	66.74	0.0297944
6488.30	66.67	0.0298009
6492.30	66.60	0.0298114
6496.30	66.54	0.0298076
6500.30	66.47	0.0297862
6504.30	66.40	0.0297802
6508.30	66.34	0.0297766
6512.30	66.27	0.0297587
6516.30	66.20	0.0297639
6520.30	66.14	0.0297816
6524.30	66.07	0.0297947
6528.30	66.00	0.0298015
6532.30	65.94	0.0298058
6536.30	65.87	0.0298109
6540.30	65.80	0.0298218
6544.30	65.74	0.0298156
6548.30	65.67	0.0298183
6552.30	65.60	0.0298100
6556.30	65.54	0.0298055
6560.30	65.47	0.0298283
6564.30	65.40	0.0298359
6568.30	65.34	0.0298249
6572.30	65.27	0.0298243
6576.30	65.20	0.0298390
6580.30	65.14	0.0298664
6584.30	65.07	0.0298758
6588.30	65.00	0.0298687
6592.30	64.94	0.0298784
6596.30	64.87	0.0298906
6600.30	64.80	0.0299044
6604.30	64.74	0.0299088
6608.30	64.67	0.0298932
6612.30	64.60	0.0298807
6616.30	64.54	0.0298818
6620.30	64.47	0.0298746
6624.30	64.40	0.0298858
6628.30	64.34	0.0298898
6632.30	64.27	0.0298837
6636.30	64.20	0.0298683
6640.30	64.14	0.0298661
6644.30	64.07	0.0298685
6648.30	64.01	0.0298869
6652.30	63.94	0.0298910
6656.30	63.87	0.0298994
6660.30	63.80	0.0299005
6664.30	63.74	0.0299131
6668.30	63.67	0.0299015
6672.30	63.60	0.0299088
6676.30	63.54	0.0298809
6680.30	63.47	0.0298893
6684.30	63.40	0.0299015
6688.30	63.34	0.0299118
6692.30	63.27	0.0298979
6696.30	63.20	0.0299047
6700.30	63.14	0.0299043
6704.30	63.07	0.0298941
6708.30	63.00	0.0298642
6712.30	62.94	0.0298707
6716.30	62.87	0.0298721
6720.30	62.80	0.0298738
6724.30	62.74	0.0298721
6728.30	62.67	0.0298553
6732.30	62.60	0.0298539
6736.30	62.54	0.0298547
6740.30	62.47	0.0298484
6744.30	62.40	0.0298471
6748.30	62.34	0.0298307
6752.30	62.27	0.0298064
6756.30	62.20	0.0298193
6760.30	62.14	0.0298242
6764.30	62.07	0.0298207
6768.30	62.00	0.0298311
6772.30	61.94	0.0298309
6776.30	61.87	0.0298361
6780.30	61.80	0.0298314
6784.30	61.74	0.0298108
6788.30	61.67	0.0298027
6792.30	61.60	0.0298410
6796.30	61.54	0.0298450
6800.30	61.47	0.0298609
6804.30	61.40	0.0298575
6808.30	61.34	0.0298227
6812.30	61.27	0.0298293
6816.30	61.20	0.0298089
6820.30	61.14	0.0298161
6824.30	61.07	0.0298395
6828.30	61.00	0.0298428
6832.30	60.94	0.0298702
6836.30	60.87	0.0298797
6840.30	60.80	0.0298525
6844.30	60.74	0.0298534
6848.30	60.67	0.0298623
6852.30	60.60	0.0298637
6856.30	60.54	0.0298762
6860.30	60.47	0.0298746
6864.30	60.40	0.0298718
6868.30	60.34	0.0298647
6872.30	60.27	0.0298818
6876.30	60.20	0.0298937
6880.30	60.14	0.0299205
6884.30	60.07	0.0299167
6888.30	60.00	0.0299115
6892.30	59.94	0.0299073
6896.30	59.87	0.0298978
6900.30	59.80	0.0298758
6904.30	59.74	0.0298747
6908.30	59.67	0.0298765
6912.30	59.60	0.0298691
6916.30	59.54	0.0298408
6920.30	59.47	0.0298309
6924.30	59.40	0.0298233
6928.30	59.34	0.0298118
6932.30	59.27	0.0298094
6936.30	59.20	0.0298095
6940.30	59.14	0.0298218
6944.30	59.07	0.0298025
6948.30	59.00	0.0297903
6952.30	58.94	0.0297916
6956.30	58.87	0.0297911
6960.30	58.80	0.0298063
6964.30	58.74	0.0298314
6968.30	58.67	0.0298225
6972.30	58.60	0.0298088
6976.30	58.54	0.0297804
6980.30	58.47	0.0298003
6984.30	58.40	0.0298171
6988.30	58.34	0.0298099
6992.30	58.27	0.0298106
6996.30	58.20	0.0298212
7000.30	58.14	0.0298095
7004.30	58.07	0.0298095
7008.30	58.00	0.0298245
7012.30	57.94	0.0298118
7016.30	57.87	0.0298145
7020.30	57.80	0.0298148
7024.30	57.74	0.0298167
7028.30	57.67	0.0298117
7032.30	57.60	0.0298220
7036.30	57.54	0.0298220
7040.30	57.47	0.0298452
7044.30	57.40	0.0298600
7048.30	57.34	0.0298508
7052.30	57.27	0.0298495
7056.30	57.20	0.0298348
7060.30	57.14	0.0298063
7064.30	57.07	0.0298136
7068.30	57.00	0.0298266
7072.30	56.94	0.0298151
7076.30	56.87	0.0298302
7080.30	56.80	0.0298423
7084.30	56.74	0.0298428
7088.30	56.67	0.0298440
7092.30	56.60	0.0298477
7096.30	56.54	0.0298549
7100.30	56.47	0.0298251
7104.30	56.40	0.0298070
7108.30	56.34	0.0298065
7112.30	56.27	0.0298442
7116.30	56.20	0.0298759
7120.30	56.14	0.0299284
7124.30	56.07	0.0299912
7128.30	56.00	0.0300806
7132.30	55.94	0.0302192
7136.30	55.87	0.0303528
7140.30	55.80	0.0305024
7144.30	55.74	0.0306017
7148.30	55.67	0.0306794
7152.30	55.60	0.0307117
7156.30	55.54	0.0307681
7160.30	55.47	0.0308201
7164.30	55.40	0.0308754
7168.30	55.34	0.0308941
7172.30	55.27	0.0309495
7176.30	55.21	0.0310117
7180.30	55.14	0.0310827
7184.30	55.07	0.0311620
7188.30	55.01	0.0312268
7192.30	54.94	0.0312883
7196.30	54.87	0.0313875
7200.30	54.80	0.0314775
7204.30	54.74	0.0316131
7208.30	54.67	0.0317565
7212.30	54.61	0.0318805
7216.30	54.54	0.0319917
7220.30	54.47	0.0320939
7224.30	54.41	0.0322330
7228.30	54.34	0.0323542
7232.30	54.27	0.0325357
7236.30	54.21	0.0327562
7240.30	54.14	0.0329578
7244.30	54.07	0.0331255
7248.30	54.01	0.0332492
7252.30	53.94	0.0333277
7256.30	53.87	0.0334202
7260.30	53.81	0.0334735
7264.30	53.74	0.0335476
7268.30	53.67	0.0335984
7272.30	53.61	0.0336403
7276.30	53.54	0.0336270
7280.30	53.47	0.0336152
7284.30	53.41	0.0336239
7288.30	53.34	0.0336200
7292.30	53.27	0.0336681
7296.30	53.21	0.0337135
7300.30	53.14	0.0337441
7304.30	53.07	0.0337457
7308.30	53.01	0.0337523
7312.30	52.94	0.0337566
7316.30	52.87	0.0337911
7320.30	52.81	0.0338202
7324.30	52.74	0.0338235
7328.30	52.67	0.0338268
7332.30	52.61	0.0338354
7336.30	52.54	0.0338305
7340.30	52.47	0.0338634
7344.30	52.41	0.0338705
7348.30	52.34	0.0338997
7352.30	52.27	0.0339180
7356.30	52.21	0.0339436
7360.30	52.14	0.0339918
7364.30	52.07	0.0340035
7368.30	52.01	0.0340401
7372.30	51.94	0.0340593
7376.30	51.87	0.0340549
7380.30	51.81	0.0340500
7384.30	51.74	0.0340656
7388.30	51.67	0.0340970
7392.30	51.61	0.0340618
7396.30	51.54	0.0340523
7400.30	51.47	0.0340725
7404.30	51.41	0.0341077
7408.30	51.34	0.0341302
7412.30	51.27	0.0341392
7416.30	51.21	0.0341799
7420.30	51.14	0.0342255
7424.30	51.07	0.0343039
7428.30	51.01	0.0343777
7432.30	50.94	0.0344556
7436.30	50.87	0.0345383
7440.30	50.81	0.0346292
7444.30	50.74	0.0347359
7448.30	50.67	0.0348345
7452.30	50.61	0.0346603
7456.30	50.57	0.0151333
7460.30	50.64	0.185167
7464.30	50.72	0.379127
7468.30	50.90	0.650116
7472.30	51.03	1.07515
7476.30	51.05	1.21839
7480.30	51.09	1.35490
7484.30	51.11	1.52966
7488.30	51.04	1.58921
7492.30	50.89	1.46711
7496.30	50.76	1.40261
7500.30	50.50	1.20316
7504.30	50.25	0.875961
7508.30	50.05	0.657280
7512.30	49.88	0.510084
7516.30	49.72	0.349959
7520.30	49.60	0.248987
7524.30	49.50	0.185747
7528.30	49.40	0.143598
7532.30	49.32	0.115834
7536.30	49.24	0.0969403
7540.30	49.17	0.0830671
7544.30	49.10	0.0729039
7548.30	49.03	0.0665732
7552.30	48.96	0.0620785
7556.30	48.89	0.0586478
7560.30	48.82	0.0567241
7564.30	48.75	0.0551895
7568.30	48.68	0.0540885
7572.30	48.62	0.0531432
7576.30	48.55	0.0523062
7580.30	48.48	0.0514516
7584.30	48.42	0.0506542
7588.30	48.35	0.0499097
7592.30	48.28	0.0492445
7596.30	48.21	0.0486183
7600.30	48.15	0.0480334
7604.30	48.08	0.0474981
7608.30	48.01	0.0469899
7612.30	47.95	0.0465170
7616.30	47.88	0.0461160
7620.30	47.81	0.0457749
7624.30	47.75	0.0454393
7628.30	47.68	0.0451558
7632.30	47.61	0.0448655
7636.30	47.55	0.0445904
7640.30	47.48	0.0443424
7644.30	47.41	0.0441269
7648.30	47.35	0.0438931
7652.30	47.28	0.0436563
7656.30	47.21	0.0434147
7660.30	47.14	0.0431622
7664.30	47.08	0.0429134
7668.30	47.01	0.0426932
7672.30	46.94	0.0424982
7676.30	46.88	0.0422680
7680.30	46.81	0.0420549
7684.30	46.74	0.0418461
7688.30	46.68	0.0416364
7692.30	46.61	0.0414459
7696.30	46.54	0.0412518
7700.30	46.48	0.0410819
7704.30	46.41	0.0409411
7708.30	46.34	0.0407881
7712.30	46.28	0.0406441
7716.30	46.21	0.0405061
7720.30	46.14	0.0403751
7724.30	46.08	0.0402559
7728.30	46.01	0.0401201
7732.30	45.94	0.0399921
7736.30	45.88	0.0398666
7740.30	45.81	0.0397215
7744.30	45.74	0.0395781
7748.30	45.68	0.0394542
7752.30	45.61	0.0393064
7756.30	45.54	0.0391766
7760.30	45.48	0.0390342
7764.30	45.41	0.0389125
7768.30	45.34	0.0387930
7772.30	45.28	0.0386752
7776.30	45.21	0.0385503
7780.30	45.14	0.0384101
7784.30	45.08	0.0383057
7788.30	45.01	0.0381815
7792.30	44.94	0.0380771
7796.30	44.88	0.0379825
7800.30	44.81	0.0378673
7804.30	44.74	0.0377683
7808.30	44.68	0.0376753
7812.30	44.61	0.0375859
7816.30	44.54	0.0375117
7820.30	44.48	0.0374252
7824.30	44.41	0.0373412
7828.30	44.34	0.0372411
7832.30	44.28	0.0371504
7836.30	44.21	0.0370575
7840.30	44.14	0.0369665
7844.30	44.07	0.0368828
7848.30	44.01	0.0367953
7852.30	43.94	0.0366721
7856.30	43.87	0.0365664
7860.30	43.81	0.0364725
7864.30	43.74	0.0363731
7868.30	43.67	0.0362993
7872.30	43.61	0.0362190
7876.30	43.54	0.0361295
7880.30	43.47	0.0360493
7884.30	43.41	0.0359515
7888.30	43.34	0.0358723
7892.30	43.27	0.0357894
7896.30	43.21	0.0356824
7900.30	43.14	0.0356026
7904.30	43.07	0.0355030
7908.30	43.01	0.0354107
7912.30	42.94	0.0353162
7916.30	42.87	0.0352225
7920.30	42.81	0.0351594
7924.30	42.74	0.0351081
7928.30	42.67	0.0350120
7932.30	42.61	0.0349555
7936.30	42.54	0.0348739
7940.30	42.47	0.0348258
7944.30	42.41	0.0347618
7948.30	42.34	0.0346711
7952.30	42.27	0.0346017
7956.30	42.21	0.0345330
7960.30	42.14	0.0344401
7964.30	42.07	0.0343691
7968.30	42.01	0.0343218
7972.30	41.94	0.0342660
7976.30	41.87	0.0342007
7980.30	41.81	0.0341321
7984.30	41.74	0.0340607
7988.30	41.67	0.0340272
7992.30	41.61	0.0339401
7996.30	41.54	0.0338621
8000.30	41.47	0.0337757
8004.30	41.41	0.0337178
8008.30	41.34	0.0336466
8012.30	41.27	0.0335849
8016.30	41.21	0.0335362
8020.30	41.14	0.0334862
8024.30	41.07	0.0334039
8028.30	41.01	0.0333435
8032.30	40.94	0.0332774
8036.30	40.87	0.0332169
8040.30	40.81	0.0331642
8044.30	40.74	0.0331066
8048.30	40.67	0.0330438
8052.30	40.61	0.0329989
8056.30	40.54	0.0329454
8060.30	40.47	0.0328927
8064.30	40.41	0.0328301
8068.30	40.34	0.0327787
8072.30	40.27	0.0327347
8076.30	40.21	0.0326946
8080.30	40.14	0.0326508
8084.30	40.07	0.0325910
8088.30	40.01	0.0325300
8092.30	39.94	0.0324617
8096.30	39.87	0.0324115
8100.30	39.81	0.0323689
8104.30	39.74	0.0323069
8108.30	39.67	0.0322338
8112.30	39.61	0.0321792
8116.30	39.54	0.0321246
8120.30	39.47	0.0320843
8124.30	39.41	0.0320564
8128.30	39.34	0.0320153
8132.30	39.27	0.0319782
8136.30	39.20	0.0319145
8140.30	39.14	0.0318663
8144.30	39.07	0.0318060
8148.30	39.00	0.0317811
8152.30	38.94	0.0317322
8156.30	38.87	0.0316888
8160.30	38.80	0.0316505
8164.30	38.74	0.0315951
8168.30	38.67	0.0315554
8172.30	38.60	0.0315201
8176.30	38.54	0.0314856
8180.30	38.47	0.0314275
8184.30	38.41	0.0313766
8188.30	38.34	0.0313043
8192.30	38.27	0.0312692
8196.30	38.20	0.0312332
8200.30	38.14	0.0311985
8204.30	38.07	0.0311534
8208.30	38.01	0.0311034
8212.30	37.94	0.0310586
8216.30	37.87	0.0310280
8220.30	37.80	0.0309879
8224.30	37.74	0.0309667
8228.30	37.67	0.0309257
8232.30	37.60	0.0308848
8236.30	37.54	0.0308481
8240.30	37.47	0.0307984
8244.30	37.40	0.0307729
8248.30	37.34	0.0307572
8252.30	37.27	0.0306978
8256.30	37.20	0.0306657
8260.30	37.14	0.0306291
8264.30	37.07	0.0305775
8268.30	37.00	0.0305433
8272.30	36.94	0.0305217
8276.30	36.87	0.0304558
8280.30	36.80	0.0304163
8284.30	36.74	0.0303739
8288.30	36.67	0.0303264
8292.30	36.60	0.0302955
8296.30	36.54	0.0302477
8300.30	36.47	0.0302172
8304.30	36.40	0.0301761
8308.30	36.34	0.0301448
8312.30	36.27	0.0301125
8316.30	36.20	0.0300833
8320.30	36.14	0.0300554
8324.30	36.07	0.0300265
8328.30	36.00	0.0300125
8332.30	35.94	0.0299919
8336.30	35.87	0.0299443
8340.30	35.80	0.0299066
8344.30	35.74	0.0298539
8348.30	35.67	0.0298089
8352.30	35.60	0.0297647
8356.30	35.54	0.0297127
8360.30	35.47	0.0296972
8364.30	35.40	0.0296697
8368.30	35.34	0.0296639
8372.30	35.27	0.0296392
8376.30	35.20	0.0296006
8380.30	35.14	0.0295449
8384.30	35.07	0.0295137
8388.30	35.00	0.0294989
8392.30	34.94	0.0294809
8396.30	34.87	0.0294678
8400.30	34.80	0.0294372
8404.30	34.74	0.0293945
8408.30	34.67	0.0293470
8412.30	34.60	0.0293105
8416.30	34.54	0.0292591
8420.30	34.47	0.0292322
8424.30	34.40	0.0292187
8428.30	34.34	0.0291940
8432.30	34.27	0.0291709
8436.30	34.20	0.0291600
8440.30	34.14	0.0291485
8444.30	34.07	0.0291230
8448.30	34.00	0.0290853
8452.30	33.94	0.0290652
8456.30	33.87	0.0290248
8460.30	33.80	0.0290012
8464.30	33.74	0.0289838
8468.30	33.67	0.0289531
8472.30	33.60	0.0289399
8476.30	33.53	0.0289186
8480.30	33.47	0.0288851
8484.30	33.40	0.0288502
8488.30	33.33	0.0288045
8492.30	33.27	0.0287692
8496.30	33.20	0.0287150
8500.30	33.14	0.0286768
8504.30	33.07	0.0286437
8508.30	33.00	0.0286400
8512.30	32.94	0.0286451
8516.30	32.87	0.0286260
8520.30	32.80	0.0285867
8524.30	32.73	0.0285708
8528.30	32.67	0.0285559
8532.30	32.60	0.0285355
8536.30	32.54	0.0285080
8540.30	32.47	0.0284964
8544.30	32.40	0.0284727
8548.30	32.34	0.0284505
8552.30	32.27	0.0284257
8556.30	32.20	0.0283954
8560.30	32.14	0.0283510
8564.30	32.07	0.0283093
8568.30	32.00	0.0283078
8572.30	31.94	0.0282805
8576.30	31.87	0.0282716
8580.30	31.80	0.0282306
8584.30	31.74	0.0281956
8588.30	31.67	0.0281514
8592.30	31.60	0.0281138
8596.30	31.54	0.0280907
8600.30	31.47	0.0280784
8604.30	31.40	0.0280675
8608.30	31.34	0.0280198
8612.30	31.27	0.0280119
8616.30	31.20	0.0279957
8620.30	31.14	0.0279830
8624.30	31.07	0.0279732
8628.30	31.00	0.0279609
8632.30	30.93	0.0279328
8636.30	30.87	0.0278976
8640.30	30.80	0.0278625
8644.30	30.74	0.0278277
8648.30	30.67	0.0278281
8652.30	30.60	0.0278256
8656.30	30.54	0.0278097
8660.30	30.47	0.0277838
8664.30	30.40	0.0277721
8668.30	30.34	0.0277487
8672.30	30.27	0.0277416
8676.30	30.20	0.0277222
8680.30	30.13	0.0277015
8684.30	30.07	0.0276820
8688.30	30.00	0.0276633
8692.30	29.93	0.0276314
8696.30	29.87	0.0276255
8700.30	29.80	0.0275927
8704.30	29.73	0.0275668
8708.30	29.67	0.0275488
8712.30	29.60	0.0275030
8716.30	29.54	0.0274817
8720.30	29.47	0.0274630
8724.30	29.40	0.0274592
8728.30	29.34	0.0274485
8732.30	29.27	0.0274250
8736.30	29.20	0.0274015
8740.30	29.14	0.0274026
8744.30	29.07	0.0274027
8748.30	29.00	0.0273694
8752.30	28.93	0.0273557
8756.30	28.87	0.0273324
8760.30	28.80	0.0273006
8764.30	28.73	0.0272727
8768.30	28.67	0.0272661
8772.30	28.60	0.0272492
8776.30	28.54	0.0272356
8780.30	28.47	0.0272126
8784.30	28.40	0.0272042
8788.30	28.33	0.0271825
8792.30	28.27	0.0271596
8796.30	28.20	0.0271529
8800.30	28.13	0.0271440
8804.30	28.07	0.0271225
8808.30	28.00	0.0270799
8812.30	27.93	0.0270403
8816.30	27.87	0.0270229
8820.30	27.80	0.0269923
8824.30	27.73	0.0269815
8828.30	27.67	0.0269826
8832.30	27.60	0.0269723
8836.30	27.53	0.0269454
8840.30	27.47	0.0269290
8844.30	27.40	0.0269020
8848.30	27.34	0.0268802
8852.30	27.27	0.0268684
8856.30	27.20	0.0268494
8860.30	27.13	0.0268298
8864.30	27.07	0.0268084
8868.30	27.00	0.0268076
8872.30	26.93	0.0268175
8876.30	26.87	0.0268358
8880.30	26.80	0.0268257
8884.30	26.73	0.0268016
8888.30	26.67	0.0267808
8892.30	26.60	0.0267622
8896.30	26.53	0.0267203
8900.30	26.47	0.0267056
8904.30	26.40	0.0266850
8908.30	26.33	0.0266746
8912.30	26.27	0.0266589
8916.30	26.20	0.0266451
8920.30	26.13	0.0266347
8924.30	26.07	0.0265917
8928.30	26.00	0.0265760
8932.30	25.93	0.0265506
8936.30	25.87	0.0265369
8940.30	25.80	0.0265125
8944.30	25.73	0.0265016
8948.30	25.67	0.0264755
8952.30	25.60	0.0264554
8956.30	25.53	0.0264480
8960.30	25.47	0.0264319
8964.30	25.40	0.0264267
8968.30	25.33	0.0264002
8972.30	25.27	0.0263982
8976.30	25.20	0.0263816
8980.30	25.13	0.0263735
8984.30	25.07	0.0263513
8988.30	25.00	0.0263135
8992.30	24.93	0.0262681
8996.30	24.87	0.0262280
9000.30	24.80	0.0262033
9004.30	24.73	0.0262107
9008.30	24.67	0.0262277
9012.30	24.60	0.0262188
9016.30	24.53	0.0261896
9020.30	24.47	0.0261708
9024.30	24.40	0.0261578
9028.30	24.33	0.0261488
9032.30	24.27	0.0261362
9036.30	24.20	0.0261093
9040.30	24.13	0.0260784
9044.30	24.07	0.0260207
9048.30	24.00	0.0260150
9052.30	23.93	0.0260363
9056.30	23.87	0.0260136
9060.30	23.80	0.0260020
9064.30	23.73	0.0260188
9068.30	23.67	0.0259847
9072.30	23.60	0.0259683
9076.30	23.53	0.0259077
9080.30	23.47	0.0259123
9084.30	23.40	0.0258851
9088.30	23.33	0.0258761
9092.30	23.27	0.0258483
9096.30	23.20	0.0258511
9100.30	23.13	0.0258542
9104.30	23.07	0.0258547
9108.30	23.00	0.0258406
9112.30	22.93	0.0258221
9116.30	22.87	0.0258004
9120.30	22.80	0.0257877
9124.30	22.73	0.0257458
9128.30	22.67	0.0257348
9132.30	22.60	0.0257132
9136.30	22.53	0.0257108
9140.30	22.47	0.0256912
9144.30	22.40	0.0256655
9148.30	22.33	0.0256614
9152.30	22.27	0.0256303
9156.30	22.20	0.0256309
9160.30	22.13	0.0256214
9164.30	22.07	0.0256159
9168.30	22.00	0.0255881
9172.30	21.93	0.0255535
9176.30	21.87	0.0255395
9180.30	21.80	0.0255160
9184.30	21.73	0.0255072
9188.30	21.67	0.0254854
9192.30	21.60	0.0254740
9196.30	21.53	0.0254489
9200.30	21.47	0.0254421
9204.30	21.40	0.0254358
9208.30	21.33	0.0254470
9212.30	21.27	0.0254215
9216.30	21.20	0.0254016
9220.30	21.13	0.0253844
9224.30	21.07	0.0253686
9228.30	21.00	0.0253652
9232.30	20.93	0.0253522
9236.30	20.87	0.0253420
9240.30	20.80	0.0253341
9244.30	20.73	0.0253167
9248.30	20.67	0.0253018
9252.30	20.60	0.0252958
9256.30	20.53	0.0252807
9260.30	20.46	0.0252757
9264.30	20.40	0.0252790
9268.30	20.33	0.0252491
9272.30	20.27	0.0252561
9276.30	20.20	0.0252495
9280.30	20.13	0.0252474
9284.30	20.07	0.0252384
9288.30	20.00	0.0252262
9292.30	19.93	0.0252428
9296.30	19.87	0.0251997
9300.30	19.80	0.0251791
9304.30	19.73	0.0251590
9308.30	19.67	0.0251247
9312.30	19.60	0.0251260
9316.30	19.53	0.0251143
9320.30	19.47	0.0251082
9324.30	19.40	0.0250717
9328.30	19.33	0.0250820
9332.30	19.27	0.0250698
9336.30	19.20	0.0250603
9340.30	19.13	0.0250375
9344.30	19.07	0.0250334
9348.30	19.00	0.0250064
9352.30	18.93	0.0249753
9356.30	18.87	0.0249539
9360.30	18.80	0.0249595
9364.30	18.73	0.0249561
9368.30	18.67	0.0249628
9372.30	18.60	0.0249271
9376.30	18.53	0.0249294
9380.30	18.47	0.0249245
9384.30	18.40	0.0249137
9388.30	18.33	0.0248979
9392.30	18.27	0.0248913
9396.30	18.20	0.0248744
9400.30	18.13	0.0248669
9404.30	18.06	0.0248524
9408.30	18.00	0.0248612
9412.30	17.93	0.0248364
9416.30	17.87	0.0248037
9420.30	17.80	0.0247762
9424.30	17.73	0.0247739
9428.30	17.67	0.0247623
9432.30	17.60	0.0247681
9436.30	17.53	0.0247588
9440.30	17.47	0.0247312
9444.30	17.40	0.0247045
9448.30	17.33	0.0247117
9452.30	17.27	0.0246723
9456.30	17.20	0.0246404
9460.30	17.13	0.0246320
9464.30	17.07	0.0246125
9468.30	17.00	0.0245912
9472.30	16.93	0.0245859
9476.30	16.87	0.0245722
9480.30	16.80	0.0245464
9484.30	16.73	0.0245196
9488.30	16.67	0.0245161
9492.30	16.60	0.0245039
9496.30	16.53	0.0244903
9500.30	16.46	0.0244915
9504.30	16.40	0.0244671
9508.30	16.33	0.0244623
9512.30	16.27	0.0244511
9516.30	16.20	0.0244311
9520.30	16.13	0.0244127
9524.30	16.07	0.0243954
9528.30	16.00	0.0243795
9532.30	15.93	0.0243791
9536.30	15.86	0.0243609
9540.30	15.80	0.0243775
9544.30	15.73	0.0243618
9548.30	15.67	0.0243315
9552.30	15.60	0.0243203
9556.30	15.53	0.0242939
9560.30	15.47	0.0242858
9564.30	15.40	0.0242851
9568.30	15.33	0.0242688
9572.30	15.27	0.0242611
9576.30	15.20	0.0242509
9580.30	15.13	0.0242262
9584.30	15.07	0.0242106
9588.30	15.00	0.0242061
9592.30	14.93	0.0241966
9596.30	14.86	0.0241753
9600.30	14.80	0.0241791
9604.30	14.73	0.0241651
9608.30	14.67	0.0241598
9612.30	14.60	0.0241457
9616.30	14.53	0.0241182
9620.30	14.47	0.0241034
9624.30	14.40	0.0240710
9628.30	14.33	0.0240856
9632.30	14.27	0.0240912
9636.30	14.20	0.0240725
9640.30	14.13	0.0240998
9644.30	14.06	0.0241127
9648.30	14.00	0.0241170
9652.30	13.93	0.0240993
9656.30	13.87	0.0240812
9660.30	13.80	0.0240511
9664.30	13.73	0.0240423
9668.30	13.67	0.0240315
9672.30	13.60	0.0240290
9676.30	13.53	0.0240367
9680.30	13.46	0.0240083
9684.30	13.40	0.0239872
9688.30	13.33	0.0239515
9692.30	13.27	0.0239273
9696.30	13.20	0.0239082
9700.30	13.13	0.0239193
9704.30	13.06	0.0239393
9708.30	13.00	0.0239519
9712.30	12.93	0.0239312
9716.30	12.87	0.0239265
9720.30	12.80	0.0239269
9724.30	12.73	0.0239216
9728.30	12.67	0.0239011
9732.30	12.60	0.0238752
9736.30	12.53	0.0238642
9740.30	12.47	0.0238355
9744.30	12.40	0.0238283
9748.30	12.33	0.0238207
9752.30	12.26	0.0238150
9756.30	12.20	0.0238219
9760.30	12.13	0.0238325
9764.30	12.07	0.0238162
9768.30	12.00	0.0238050
9772.30	11.93	0.0238094
9776.30	11.86	0.0237883
9780.30	11.80	0.0237781
9784.30	11.73	0.0237353
9788.30	11.66	0.0237524
9792.30	11.60	0.0237605
9796.30	11.53	0.0237527
9800.30	11.46	0.0237513
9804.30	11.40	0.0237258
9808.30	11.33	0.0236976
9812.30	11.27	0.0236822
9816.30	11.20	0.0236612
9820.30	11.13	0.0236499
9824.30	11.06	0.0236249
9828.30	11.00	0.0235954
9832.30	10.93	0.0236023
9836.30	10.86	0.0235925
9840.30	10.80	0.0235926
9844.30	10.73	0.0235932
9848.30	10.66	0.0235785
9852.30	10.60	0.0235585
9856.30	10.53	0.0235646
9860.30	10.46	0.0235446
9864.30	10.40	0.0235283
9868.30	10.33	0.0235087
9872.30	10.26	0.0235056
9876.30	10.20	0.0234968
9880.30	10.13	0.0234829
9884.30	10.06	0.0234759
9888.30	10.00	0.0234655
9892.30	9.93	0.0234687
9896.30	9.86	0.0234600
9900.30	9.80	0.0234291
9904.30	9.73	0.0233947
9908.30	9.67	0.0233995
9912.30	9.60	0.0234187
9916.30	9.53	0.0233651
9920.30	9.47	0.0233731
9924.30	9.40	0.0233588
9928.30	9.33	0.0233489
9932.30	9.26	0.0233294
9936.30	9.20	0.0233376
9940.30	9.13	0.0233310
9944.30	9.06	0.0232919
9948.30	9.00	0.0232706
9952.30	8.93	0.0232509
9956.30	8.86	0.0232226
9960.30	8.80	0.0232014
9964.30	8.73	0.0231812
9968.30	8.66	0.0231983
9972.30	8.60	0.0231740
9976.30	8.53	0.0231454
9980.30	8.46	0.0231304
9984.30	8.40	0.0231406
9988.30	8.33	0.0231293
9992.30	8.26	0.0231240
9996.30	8.20	0.0231140
10000.3	8.13	0.0230999
10004.3	8.06	0.0230895
10008.3	8.00	0.0230726
10012.3	7.93	0.0230574
10016.3	7.86	0.0230682
10020.3	7.80	0.0230731
10024.3	7.73	0.0230573
10028.3	7.66	0.0230361
10032.3	7.60	0.0230258
10036.3	7.53	0.0229994
10040.3	7.46	0.0229826
10044.3	7.40	0.0229674
10048.3	7.33	0.0229433
10052.3	7.26	0.0229076
10056.3	7.20	0.0230226
10060.3	7.13	0.0230749
10064.3	7.06	0.0230645
10068.3	7.00	0.0230623
10072.3	6.93	0.0230514
10076.3	6.87	0.0230057
10080.3	6.80	0.0229595
10084.3	6.73	0.0229445
10088.3	6.66	0.0229093
10092.3	6.60	0.0228977
10096.3	6.53	0.0228649
10100.3	6.46	0.0228518
10104.3	6.40	0.0228341
10108.3	6.33	0.0228174
10112.3	6.26	0.0228082
10116.3	6.20	0.0228017
10120.3	6.13	0.0227830
10124.3	6.06	0.0227738
10128.3	6.00	0.0227558
10132.3	5.93	0.0227399
10136.3	5.86	0.0227311
10140.3	5.80	0.0227281
10144.3	5.73	0.0227033
10148.3	5.67	0.0226862
10152.3	5.60	0.0226789
10156.3	5.53	0.0226785
10160.3	5.46	0.0227045
10164.3	5.40	0.0226883
10168.3	5.33	0.0227084
10172.3	5.26	0.0226925
10176.3	5.20	0.0226759
10180.3	5.13	0.0226546
10184.3	5.07	0.0226489
10188.3	5.00	0.0226028
10192.3	4.93	0.0250246
10196.3	4.87	0.0253288
10200.3	4.80	0.0250412
10204.3	4.73	0.0246772
10208.3	4.66	0.0242793
10212.3	4.60	0.0239171
10216.3	4.53	0.0236306
10220.3	4.46	0.0233528
10224.3	4.40	0.0231720
10228.3	4.33	0.0230138
10232.3	4.26	0.0229111
10236.3	4.20	0.0228109
10240.3	4.13	0.0227436
10244.3	4.06	0.0226750
10248.3	4.00	0.0226215
10252.3	3.93	0.0225870
10256.3	3.86	0.0225597
10260.3	3.80	0.0225640
10264.3	3.73	0.0225358
10268.3	3.66	0.0225436
10272.3	3.60	0.0225170
10276.3	3.53	0.0224886
10280.3	3.46	0.0224812
10284.3	3.40	0.0224571
10288.3	3.33	0.0224303
10292.3	3.26	0.0224297
10296.3	3.20	0.0224365
10300.3	3.13	0.0224288
10304.3	3.06	0.0224115
10308.3	3.00	0.0223969
10312.3	2.93	0.0223647
10316.3	2.86	0.0223607
10320.3	2.80	0.0223559
10324.3	2.73	0.0223367
10328.3	2.66	0.0223526
10332.3	2.60	0.0223483
10336.3	2.53	0.0223529
10340.3	2.46	0.0223552
10344.3	2.40	0.0223512
10348.3	2.33	0.0223514
10352.3	2.27	0.0223718
10356.3	2.20	0.0223420
10360.3	2.13	0.0223203
10364.3	2.07	0.0223083
10368.3	2.00	0.0223085
10372.3	1.93	0.0223167
10376.3	1.87	0.0223030
10380.3	1.80	0.0223130
10384.3	1.73	0.0223437
10388.3	1.66	0.0223674
10392.3	1.60	0.0223659
10396.3	1.53	0.0223404
10400.3	1.46	0.0223289
10404.3	1.40	0.0223142
10408.3	1.33	0.0222984
10412.3	1.26	0.0222859
10416.3	1.20	0.0222773
10420.3	1.13	0.0222848
10424.3	1.06	0.0222789
10428.3	1.00	0.0222587
10432.3	0.93	0.0222572
10436.3	0.86	0.0222534
10440.3	0.80	0.0222491
10444.3	0.73	0.0222410
10448.3	0.66	0.0222323
10452.3	0.60	0.0222228
10456.3	0.53	0.0222253
10460.3	0.46	0.0222016
10464.3	0.40	0.0222017
10468.3	0.33	0.0221939
10472.3	0.26	0.0221853
10476.3	0.20	0.0221827
10480.3	0.13	0.0221881
10484.3	0.06	0.0222079
10488.3	0.00	0.0222199
10492.3	-0.07	0.0222231
10496.3	-0.14	0.0222299
10500.2	-0.20	0.0222237