File: Differential scanning calorimetry/12OCB Squalene/12OCB SqE wt fraction 059.txt
Filename	Sq12OCB59T150
Instrument name	DSC2A-00101 (192.168.10.4)
Operator	Yuma
rundate	2/9/2021
Sample name	Sq12OCB59T150
proceduresegments	Jump 150.00 °C; Isothermal 10.0 min; Jump 0.00 °C; Isothermal 5.0 min; Mark End of Cycle ; Ramp 5.00 °C/min to 150.00 °C; Mark End of Cycle ; Ramp 5.00 °C/min to 0.00 °C; Mark End of Cycle ; Ramp 5.00 °C/min to 150.00 °C; Mark End of Cycle ; Ramp 1.00 °C/min to 0.00 °C; Mark End of Cycle ; Ramp 5.00 °C/min to 150.00 °C; Mark End of Cycle ; Ramp 10.00 °C/min to 0.00 °C; Mark End of Cycle ; Ramp 10.00 °C/min to 150.00 °C; Mark End of Cycle ; Jump 0.00 °C; Mark End of Cycle
[step]
Ramp 1.00 °C/min to 0.00 °C
Time	Temperature	Heat Flow (Normalized)
s	°C	W/g
6300.50	149.03	-0.183374
6306.50	149.45	-0.250595
6312.50	149.59	-0.156147
6318.50	149.56	-0.0447942
6324.50	149.49	5.37143e-4
6330.50	149.40	0.0193393
6336.50	149.30	0.0253980
6342.50	149.20	0.0273458
6348.50	149.10	0.0285668
6354.50	149.00	0.0295205
6360.50	148.90	0.0301794
6366.50	148.80	0.0305664
6372.50	148.70	0.0307457
6378.50	148.61	0.0308970
6384.50	148.51	0.0309714
6390.50	148.41	0.0309801
6396.50	148.31	0.0310140
6402.50	148.21	0.0310304
6408.50	148.11	0.0310171
6414.50	148.01	0.0310506
6420.50	147.91	0.0310913
6426.50	147.81	0.0310300
6432.50	147.71	0.0310112
6438.50	147.61	0.0310078
6444.50	147.51	0.0309959
6450.50	147.41	0.0309510
6456.50	147.31	0.0309203
6462.50	147.21	0.0309330
6468.50	147.11	0.0309621
6474.50	147.01	0.0309880
6480.50	146.91	0.0309328
6486.50	146.81	0.0309230
6492.50	146.71	0.0308994
6498.50	146.61	0.0308990
6504.50	146.51	0.0309132
6510.50	146.41	0.0308708
6516.50	146.31	0.0308237
6522.50	146.21	0.0308036
6528.50	146.11	0.0308063
6534.50	146.01	0.0307880
6540.50	145.91	0.0307704
6546.50	145.81	0.0307513
6552.50	145.71	0.0307168
6558.50	145.61	0.0306889
6564.50	145.51	0.0307199
6570.50	145.41	0.0307765
6576.50	145.31	0.0307808
6582.50	145.21	0.0307130
6588.50	145.11	0.0306460
6594.50	145.01	0.0306089
6600.50	144.91	0.0305928
6606.50	144.81	0.0306024
6612.50	144.71	0.0306354
6618.50	144.61	0.0306326
6624.50	144.51	0.0306672
6630.50	144.41	0.0306939
6636.50	144.31	0.0307415
6642.50	144.21	0.0307316
6648.50	144.11	0.0306832
6654.50	144.01	0.0306324
6660.50	143.91	0.0306405
6666.50	143.81	0.0306066
6672.50	143.71	0.0305875
6678.50	143.61	0.0306050
6684.50	143.51	0.0306415
6690.50	143.41	0.0306519
6696.50	143.31	0.0305707
6702.50	143.21	0.0305074
6708.50	143.11	0.0305354
6714.50	143.01	0.0305486
6720.50	142.91	0.0305683
6726.50	142.81	0.0306025
6732.50	142.71	0.0305608
6738.50	142.61	0.0305103
6744.50	142.51	0.0305090
6750.50	142.41	0.0305114
6756.50	142.31	0.0305364
6762.50	142.21	0.0305511
6768.50	142.11	0.0305502
6774.50	142.01	0.0305481
6780.50	141.91	0.0305139
6786.50	141.81	0.0305010
6792.50	141.71	0.0304655
6798.50	141.61	0.0304880
6804.50	141.51	0.0305125
6810.50	141.41	0.0304835
6816.50	141.31	0.0304124
6822.50	141.21	0.0303294
6828.50	141.11	0.0304021
6834.50	141.01	0.0304288
6840.50	140.91	0.0304536
6846.50	140.81	0.0305101
6852.50	140.71	0.0305104
6858.50	140.61	0.0304996
6864.50	140.51	0.0304792
6870.50	140.41	0.0304941
6876.50	140.31	0.0304633
6882.50	140.21	0.0305086
6888.50	140.11	0.0305126
6894.50	140.01	0.0304950
6900.50	139.91	0.0304772
6906.50	139.81	0.0305050
6912.50	139.71	0.0304903
6918.50	139.61	0.0304684
6924.50	139.51	0.0303892
6930.50	139.41	0.0303674
6936.50	139.31	0.0303421
6942.50	139.21	0.0303622
6948.50	139.11	0.0303938
6954.50	139.01	0.0304402
6960.50	138.91	0.0304696
6966.50	138.81	0.0304756
6972.50	138.71	0.0304583
6978.50	138.61	0.0305032
6984.50	138.51	0.0305311
6990.50	138.41	0.0305037
6996.50	138.31	0.0304554
7002.50	138.21	0.0304549
7008.50	138.11	0.0304473
7014.50	138.01	0.0303774
7020.50	137.91	0.0303858
7026.50	137.81	0.0304435
7032.50	137.71	0.0304480
7038.50	137.61	0.0303689
7044.50	137.51	0.0302904
7050.50	137.41	0.0302548
7056.50	137.31	0.0302542
7062.50	137.21	0.0303577
7068.50	137.11	0.0304003
7074.50	137.01	0.0304079
7080.50	136.91	0.0304483
7086.50	136.81	0.0304338
7092.50	136.71	0.0304663
7098.50	136.61	0.0304592
7104.50	136.51	0.0304798
7110.50	136.41	0.0304683
7116.50	136.31	0.0304475
7122.50	136.21	0.0304556
7128.50	136.11	0.0304240
7134.50	136.01	0.0303835
7140.50	135.91	0.0304029
7146.50	135.81	0.0303812
7152.50	135.71	0.0304330
7158.50	135.61	0.0304457
7164.50	135.51	0.0305328
7170.50	135.41	0.0304819
7176.50	135.31	0.0303927
7182.50	135.21	0.0303439
7188.50	135.11	0.0303182
7194.50	135.01	0.0303382
7200.50	134.91	0.0303767
7206.50	134.81	0.0303716
7212.50	134.71	0.0304000
7218.50	134.61	0.0303946
7224.50	134.51	0.0303611
7230.50	134.41	0.0303787
7236.50	134.31	0.0303573
7242.50	134.21	0.0303239
7248.50	134.11	0.0303029
7254.50	134.01	0.0302972
7260.50	133.91	0.0302838
7266.50	133.81	0.0303342
7272.50	133.71	0.0303580
7278.50	133.61	0.0303964
7284.50	133.51	0.0303948
7290.50	133.41	0.0303784
7296.50	133.31	0.0303589
7302.50	133.21	0.0303385
7308.50	133.11	0.0303010
7314.50	133.01	0.0303115
7320.50	132.91	0.0302812
7326.50	132.81	0.0303042
7332.50	132.71	0.0303340
7338.50	132.61	0.0303711
7344.50	132.51	0.0303713
7350.50	132.41	0.0303433
7356.50	132.31	0.0303402
7362.50	132.21	0.0303451
7368.50	132.11	0.0303087
7374.50	132.01	0.0302981
7380.50	131.91	0.0303047
7386.50	131.81	0.0303294
7392.50	131.71	0.0303760
7398.50	131.61	0.0303927
7404.50	131.51	0.0303266
7410.50	131.41	0.0303370
7416.50	131.31	0.0303285
7422.50	131.21	0.0303312
7428.50	131.11	0.0303803
7434.50	131.01	0.0304258
7440.50	130.91	0.0304246
7446.50	130.81	0.0303663
7452.50	130.71	0.0302791
7458.50	130.61	0.0302384
7464.50	130.51	0.0302347
7470.50	130.41	0.0302585
7476.50	130.31	0.0302978
7482.50	130.21	0.0302771
7488.50	130.11	0.0303008
7494.50	130.01	0.0303349
7500.50	129.91	0.0303770
7506.50	129.81	0.0303944
7512.50	129.71	0.0303970
7518.50	129.61	0.0303775
7524.50	129.51	0.0303781
7530.50	129.41	0.0303970
7536.50	129.31	0.0304282
7542.50	129.21	0.0303946
7548.50	129.11	0.0303748
7554.50	129.01	0.0303995
7560.50	128.91	0.0304056
7566.50	128.81	0.0303828
7572.50	128.71	0.0303172
7578.50	128.61	0.0303741
7584.50	128.51	0.0303355
7590.50	128.41	0.0303021
7596.50	128.31	0.0302473
7602.50	128.21	0.0302696
7608.50	128.11	0.0302801
7614.50	128.01	0.0302650
7620.50	127.91	0.0302763
7626.50	127.81	0.0302593
7632.50	127.71	0.0302965
7638.50	127.61	0.0302898
7644.50	127.51	0.0303283
7650.50	127.41	0.0303237
7656.50	127.31	0.0303189
7662.50	127.21	0.0303104
7668.50	127.11	0.0303113
7674.50	127.02	0.0302843
7680.50	126.91	0.0302892
7686.50	126.81	0.0303249
7692.50	126.71	0.0303212
7698.50	126.61	0.0302833
7704.50	126.51	0.0303098
7710.50	126.41	0.0302729
7716.50	126.31	0.0303103
7722.50	126.21	0.0302725
7728.50	126.11	0.0302383
7734.50	126.01	0.0302859
7740.50	125.91	0.0302577
7746.50	125.81	0.0302626
7752.50	125.71	0.0302400
7758.50	125.61	0.0302281
7764.50	125.51	0.0302006
7770.50	125.41	0.0301599
7776.50	125.31	0.0301816
7782.50	125.21	0.0301530
7788.50	125.11	0.0301422
7794.50	125.01	0.0301769
7800.50	124.91	0.0301673
7806.50	124.81	0.0302116
7812.50	124.71	0.0302208
7818.50	124.62	0.0302112
7824.50	124.51	0.0302473
7830.50	124.41	0.0302792
7836.50	124.31	0.0303256
7842.50	124.21	0.0303308
7848.50	124.11	0.0302713
7854.50	124.01	0.0302566
7860.50	123.91	0.0302810
7866.50	123.81	0.0302647
7872.50	123.71	0.0302461
7878.50	123.61	0.0302787
7884.50	123.51	0.0302599
7890.50	123.41	0.0302262
7896.50	123.32	0.0302317
7902.50	123.21	0.0302012
7908.50	123.11	0.0302171
7914.50	123.01	0.0302448
7920.50	122.91	0.0302483
7926.50	122.81	0.0302463
7932.50	122.71	0.0302032
7938.50	122.61	0.0302290
7944.50	122.51	0.0302401
7950.50	122.41	0.0302219
7956.50	122.32	0.0301927
7962.50	122.21	0.0301724
7968.50	122.12	0.0301629
7974.50	122.01	0.0301800
7980.50	121.92	0.0301775
7986.50	121.81	0.0301795
7992.50	121.71	0.0302151
7998.50	121.61	0.0302228
8004.50	121.51	0.0302097
8010.50	121.42	0.0302028
8016.50	121.31	0.0301975
8022.50	121.22	0.0302109
8028.50	121.11	0.0301814
8034.50	121.02	0.0301948
8040.50	120.91	0.0301976
8046.50	120.82	0.0302286
8052.50	120.72	0.0302115
8058.50	120.62	0.0301683
8064.50	120.51	0.0301720
8070.50	120.41	0.0302129
8076.50	120.31	0.0302899
8082.50	120.21	0.0302582
8088.50	120.12	0.0302000
8094.50	120.01	0.0301810
8100.50	119.91	0.0302424
8106.50	119.81	0.0302542
8112.50	119.71	0.0303093
8118.50	119.61	0.0302811
8124.50	119.51	0.0301923
8130.50	119.41	0.0301807
8136.50	119.31	0.0301624
8142.50	119.21	0.0302131
8148.50	119.11	0.0301714
8154.50	119.01	0.0301409
8160.50	118.91	0.0301403
8166.50	118.82	0.0301260
8172.50	118.72	0.0301152
8178.50	118.62	0.0301001
8184.50	118.52	0.0301331
8190.50	118.42	0.0301661
8196.50	118.31	0.0302276
8202.50	118.22	0.0302621
8208.50	118.11	0.0302317
8214.50	118.02	0.0302324
8220.50	117.92	0.0302595
8226.50	117.81	0.0302379
8232.50	117.72	0.0302190
8238.50	117.62	0.0302376
8244.50	117.51	0.0302477
8250.50	117.41	0.0302162
8256.50	117.32	0.0302375
8262.50	117.21	0.0302415
8268.50	117.12	0.0302244
8274.50	117.02	0.0302469
8280.50	116.92	0.0302392
8286.50	116.81	0.0302748
8292.50	116.72	0.0302825
8298.50	116.62	0.0302634
8304.50	116.51	0.0302871
8310.50	116.41	0.0303063
8316.50	116.31	0.0303345
8322.50	116.22	0.0303139
8328.50	116.11	0.0302325
8334.50	116.01	0.0301675
8340.50	115.91	0.0301273
8346.50	115.81	0.0300937
8352.50	115.72	0.0300838
8358.50	115.62	0.0300866
8364.50	115.51	0.0301315
8370.50	115.42	0.0301478
8376.50	115.32	0.0301699
8382.50	115.22	0.0301641
8388.50	115.12	0.0302098
8394.50	115.02	0.0301674
8400.50	114.91	0.0301881
8406.50	114.82	0.0301877
8412.50	114.72	0.0301801
8418.50	114.62	0.0301725
8424.50	114.52	0.0302195
8430.50	114.42	0.0302280
8436.50	114.32	0.0302329
8442.50	114.22	0.0302510
8448.50	114.12	0.0302495
8454.50	114.02	0.0302527
8460.50	113.92	0.0301979
8466.50	113.82	0.0301865
8472.50	113.71	0.0302204
8478.50	113.61	0.0302471
8484.50	113.51	0.0302326
8490.50	113.41	0.0301594
8496.50	113.31	0.0301478
8502.50	113.22	0.0301304
8508.50	113.12	0.0301368
8514.50	113.02	0.0301369
8520.50	112.92	0.0301568
8526.50	112.82	0.0301659
8532.50	112.71	0.0301475
8538.50	112.62	0.0301412
8544.50	112.52	0.0301052
8550.50	112.42	0.0301056
8556.50	112.32	0.0301224
8562.50	112.22	0.0301344
8568.50	112.12	0.0301243
8574.50	112.01	0.0301348
8580.50	111.92	0.0301274
8586.50	111.82	0.0301552
8592.50	111.72	0.0302007
8598.50	111.62	0.0302099
8604.50	111.52	0.0302170
8610.50	111.42	0.0302197
8616.50	111.31	0.0302225
8622.50	111.22	0.0301876
8628.50	111.12	0.0301775
8634.50	111.02	0.0301520
8640.50	110.92	0.0301426
8646.50	110.82	0.0301275
8652.50	110.72	0.0301476
8658.50	110.62	0.0301501
8664.50	110.51	0.0301375
8670.50	110.42	0.0301231
8676.50	110.31	0.0301721
8682.50	110.22	0.0301494
8688.50	110.12	0.0301431
8694.50	110.02	0.0301260
8700.50	109.92	0.0301451
8706.50	109.82	0.0301661
8712.50	109.72	0.0301821
8718.50	109.62	0.0301946
8724.50	109.52	0.0302193
8730.50	109.41	0.0301685
8736.50	109.32	0.0301508
8742.50	109.22	0.0301667
8748.50	109.12	0.0301727
8754.50	109.02	0.0301542
8760.50	108.92	0.0301463
8766.50	108.81	0.0301325
8772.50	108.72	0.0301356
8778.50	108.62	0.0301187
8784.50	108.52	0.0301131
8790.50	108.42	0.0301415
8796.50	108.32	0.0301804
8802.50	108.22	0.0301757
8808.50	108.11	0.0301653
8814.50	108.02	0.0301532
8820.50	107.91	0.0301681
8826.50	107.82	0.0301986
8832.50	107.71	0.0302124
8838.50	107.62	0.0301857
8844.50	107.52	0.0301583
8850.50	107.42	0.0300893
8856.50	107.32	0.0300760
8862.50	107.22	0.0301033
8868.50	107.12	0.0300778
8874.50	107.02	0.0301081
8880.50	106.92	0.0301164
8886.50	106.82	0.0301293
8892.50	106.72	0.0301418
8898.50	106.62	0.0301646
8904.50	106.52	0.0302099
8910.50	106.42	0.0302087
8916.50	106.32	0.0302203
8922.50	106.22	0.0301865
8928.50	106.12	0.0301883
8934.50	106.02	0.0302131
8940.50	105.91	0.0302086
8946.50	105.82	0.0302032
8952.50	105.72	0.0301775
8958.50	105.62	0.0301555
8964.50	105.52	0.0301539
8970.50	105.42	0.0301530
8976.50	105.32	0.0301729
8982.50	105.22	0.0301663
8988.50	105.12	0.0301750
8994.50	105.02	0.0301554
9000.50	104.92	0.0301824
9006.50	104.82	0.0302256
9012.50	104.72	0.0302185
9018.50	104.62	0.0302385
9024.50	104.52	0.0303168
9030.50	104.42	0.0302404
9036.50	104.32	0.0302845
9042.50	104.22	0.0302758
9048.50	104.12	0.0302436
9054.50	104.02	0.0302189
9060.50	103.92	0.0302184
9066.50	103.82	0.0301466
9072.50	103.72	0.0301654
9078.50	103.62	0.0301668
9084.50	103.52	0.0301963
9090.50	103.42	0.0301820
9096.50	103.32	0.0301790
9102.50	103.22	0.0301766
9108.50	103.12	0.0301352
9114.50	103.02	0.0301375
9120.50	102.92	0.0301685
9126.50	102.82	0.0302199
9132.50	102.72	0.0302344
9138.50	102.61	0.0302424
9144.50	102.52	0.0302126
9150.50	102.42	0.0302036
9156.50	102.31	0.0302259
9162.50	102.21	0.0302446
9168.50	102.12	0.0302371
9174.50	102.01	0.0302041
9180.50	101.92	0.0301899
9186.50	101.82	0.0301430
9192.50	101.72	0.0301398
9198.50	101.62	0.0301172
9204.50	101.52	0.0301597
9210.50	101.42	0.0301508
9216.50	101.32	0.0301611
9222.50	101.22	0.0301634
9228.50	101.12	0.0301834
9234.50	101.02	0.0301606
9240.50	100.92	0.0302107
9246.50	100.82	0.0302397
9252.50	100.72	0.0302205
9258.50	100.62	0.0302104
9264.50	100.52	0.0301380
9270.50	100.42	0.0301965
9276.50	100.32	0.0301506
9282.50	100.22	0.0301605
9288.50	100.12	0.0301753
9294.50	100.02	0.0302113
9300.50	99.92	0.0302178
9306.50	99.82	0.0302368
9312.50	99.72	0.0302164
9318.50	99.62	0.0302510
9324.50	99.52	0.0302587
9330.50	99.42	0.0303079
9336.50	99.32	0.0303376
9342.50	99.21	0.0303252
9348.50	99.12	0.0302673
9354.50	99.02	0.0302911
9360.50	98.92	0.0302641
9366.50	98.82	0.0302605
9372.50	98.72	0.0302977
9378.50	98.62	0.0302616
9384.50	98.52	0.0302884
9390.50	98.42	0.0302706
9396.50	98.32	0.0302580
9402.50	98.22	0.0302125
9408.50	98.12	0.0302055
9414.50	98.02	0.0302603
9420.50	97.92	0.0302970
9426.50	97.82	0.0302900
9432.50	97.72	0.0303007
9438.50	97.62	0.0302535
9444.50	97.52	0.0302549
9450.50	97.42	0.0302792
9456.50	97.32	0.0302997
9462.50	97.22	0.0303083
9468.50	97.12	0.0303029
9474.50	97.02	0.0303017
9480.50	96.92	0.0302988
9486.50	96.82	0.0302848
9492.50	96.72	0.0302983
9498.50	96.62	0.0302867
9504.50	96.52	0.0302608
9510.50	96.42	0.0302967
9516.50	96.32	0.0303274
9522.50	96.22	0.0303517
9528.50	96.12	0.0303898
9534.50	96.01	0.0303823
9540.50	95.92	0.0303785
9546.50	95.82	0.0303725
9552.50	95.72	0.0303625
9558.50	95.62	0.0303287
9564.50	95.51	0.0302889
9570.50	95.42	0.0302561
9576.50	95.32	0.0302603
9582.50	95.22	0.0302470
9588.50	95.12	0.0302854
9594.50	95.02	0.0303098
9600.50	94.92	0.0303350
9606.50	94.82	0.0303336
9612.50	94.72	0.0303528
9618.50	94.62	0.0303496
9624.50	94.52	0.0303360
9630.50	94.42	0.0304253
9636.50	94.32	0.0304248
9642.50	94.22	0.0304113
9648.50	94.12	0.0304172
9654.50	94.02	0.0304753
9660.50	93.92	0.0304372
9666.50	93.82	0.0304158
9672.50	93.72	0.0304330
9678.50	93.62	0.0304193
9684.50	93.52	0.0304136
9690.50	93.42	0.0303888
9696.50	93.32	0.0303986
9702.50	93.22	0.0304189
9708.50	93.12	0.0304334
9714.50	93.02	0.0304599
9720.50	92.92	0.0304576
9726.50	92.82	0.0304640
9732.50	92.72	0.0304401
9738.50	92.62	0.0304280
9744.50	92.52	0.0304382
9750.50	92.42	0.0304836
9756.50	92.32	0.0305064
9762.50	92.22	0.0305388
9768.50	92.12	0.0305184
9774.50	92.02	0.0304918
9780.50	91.92	0.0304840
9786.50	91.82	0.0305582
9792.50	91.72	0.0305657
9798.50	91.62	0.0305243
9804.50	91.52	0.0305025
9810.50	91.42	0.0304992
9816.50	91.32	0.0305120
9822.50	91.22	0.0305154
9828.50	91.12	0.0305409
9834.50	91.02	0.0305714
9840.50	90.92	0.0305970
9846.50	90.82	0.0306065
9852.50	90.72	0.0306277
9858.50	90.62	0.0305960
9864.50	90.52	0.0306287
9870.50	90.42	0.0305806
9876.50	90.32	0.0305559
9882.50	90.22	0.0305531
9888.50	90.12	0.0305732
9894.50	90.02	0.0305876
9900.50	89.92	0.0306402
9906.50	89.82	0.0306385
9912.50	89.72	0.0306565
9918.50	89.62	0.0306514
9924.50	89.52	0.0306214
9930.50	89.42	0.0306485
9936.50	89.32	0.0306782
9942.50	89.22	0.0306895
9948.50	89.12	0.0307239
9954.50	89.02	0.0307523
9960.50	88.92	0.0307173
9966.50	88.82	0.0307044
9972.50	88.72	0.0307312
9978.50	88.62	0.0307863
9984.50	88.52	0.0307984
9990.50	88.42	0.0308331
9996.50	88.32	0.0307954
10002.5	88.22	0.0307647
10008.5	88.12	0.0307456
10014.5	88.02	0.0307233
10020.5	87.92	0.0307459
10026.5	87.82	0.0307861
10032.5	87.72	0.0308124
10038.5	87.62	0.0308746
10044.5	87.52	0.0308541
10050.5	87.42	0.0308643
10056.5	87.32	0.0308683
10062.5	87.22	0.0309151
10068.5	87.12	0.0308795
10074.5	87.02	0.0308632
10080.5	86.92	0.0308988
10086.5	86.82	0.0309361
10092.5	86.72	0.0309371
10098.5	86.62	0.0309407
10104.5	86.52	0.0309257
10110.5	86.42	0.0309442
10116.5	86.32	0.0309739
10122.5	86.22	0.0310076
10128.5	86.12	0.0310070
10134.5	86.02	0.0310707
10140.5	85.92	0.0310278
10146.5	85.82	0.0310812
10152.5	85.72	0.0311151
10158.5	85.62	0.0311052
10164.5	85.52	0.0311125
10170.5	85.42	0.0311218
10176.5	85.32	0.0311414
10182.5	85.22	0.0311841
10188.5	85.12	0.0312079
10194.5	85.02	0.0312261
10200.5	84.92	0.0312404
10206.5	84.82	0.0312339
10212.5	84.72	0.0312738
10218.5	84.62	0.0312933
10224.5	84.52	0.0312873
10230.5	84.42	0.0313153
10236.5	84.32	0.0313418
10242.5	84.22	0.0313770
10248.5	84.12	0.0313563
10254.5	84.01	0.0314428
10260.5	83.92	0.0315229
10266.5	83.82	0.0315534
10272.5	83.72	0.0315646
10278.5	83.62	0.0315657
10284.5	83.52	0.0315848
10290.5	83.42	0.0316045
10296.5	83.32	0.0316440
10302.5	83.22	0.0316909
10308.5	83.12	0.0316891
10314.5	83.02	0.0317668
10320.5	82.92	0.0317701
10326.5	82.82	0.0318090
10332.5	82.72	0.0317984
10338.5	82.62	0.0318603
10344.5	82.52	0.0318954
10350.5	82.42	0.0319111
10356.5	82.32	0.0319414
10362.5	82.22	0.0319940
10368.5	82.12	0.0320039
10374.5	82.02	0.0320305
10380.5	81.92	0.0324619
10386.5	81.82	0.0336214
10392.5	81.72	0.0351974
10398.5	81.63	0.0453114
10404.5	81.53	0.0654637
10410.5	81.44	0.0836182
10416.5	81.34	0.0926993
10422.5	81.24	0.0947722
10428.5	81.14	0.0945581
10434.5	81.04	0.0914584
10440.5	80.94	0.0871017
10446.5	80.84	0.0831345
10452.5	80.73	0.0799416
10458.5	80.63	0.0770811
10464.5	80.53	0.0743489
10470.5	80.43	0.0717737
10476.5	80.33	0.0689027
10482.5	80.23	0.0658910
10488.5	80.13	0.0633778
10494.5	80.03	0.0611614
10500.5	79.93	0.0593736
10506.5	79.83	0.0582662
10512.5	79.73	0.0578628
10518.5	79.63	0.0580164
10524.5	79.53	0.0583260
10530.5	79.43	0.0585525
10536.5	79.33	0.0584664
10542.5	79.23	0.0581361
10548.5	79.13	0.0576274
10554.5	79.03	0.0570506
10560.5	78.93	0.0563381
10566.5	78.83	0.0555745
10572.5	78.72	0.0548184
10578.5	78.63	0.0539635
10584.5	78.53	0.0531459
10590.5	78.42	0.0524399
10596.5	78.32	0.0518287
10602.5	78.22	0.0512684
10608.5	78.12	0.0506411
10614.5	78.02	0.0500095
10620.5	77.92	0.0494587
10626.5	77.82	0.0488890
10632.5	77.72	0.0484062
10638.5	77.62	0.0479907
10644.5	77.52	0.0476016
10650.5	77.42	0.0472213
10656.5	77.32	0.0468386
10662.5	77.22	0.0465012
10668.5	77.12	0.0461779
10674.5	77.02	0.0458257
10680.5	76.92	0.0454823
10686.5	76.82	0.0450843
10692.5	76.72	0.0446954
10698.5	76.62	0.0443393
10704.5	76.52	0.0439739
10710.5	76.42	0.0435824
10716.5	76.32	0.0432967
10722.5	76.22	0.0429882
10728.5	76.12	0.0427297
10734.5	76.02	0.0425209
10740.5	75.92	0.0422609
10746.5	75.82	0.0420517
10752.5	75.72	0.0417360
10758.5	75.62	0.0415273
10764.5	75.52	0.0413071
10770.5	75.42	0.0410619
10776.5	75.32	0.0408180
10782.5	75.22	0.0406287
10788.5	75.12	0.0404249
10794.5	75.02	0.0402010
10800.5	74.92	0.0399911
10806.5	74.82	0.0397805
10812.5	74.72	0.0395728
10818.5	74.62	0.0393576
10824.5	74.52	0.0391146
10830.5	74.42	0.0389055
10836.5	74.32	0.0387256
10842.5	74.22	0.0385655
10848.5	74.12	0.0383910
10854.5	74.02	0.0381831
10860.5	73.92	0.0379786
10866.5	73.82	0.0378306
10872.5	73.72	0.0376699
10878.5	73.62	0.0374667
10884.5	73.52	0.0372914
10890.5	73.42	0.0371533
10896.5	73.32	0.0370168
10902.5	73.22	0.0368726
10908.5	73.12	0.0367089
10914.5	73.02	0.0365137
10920.5	72.92	0.0363532
10926.5	72.82	0.0362290
10932.5	72.72	0.0360795
10938.5	72.62	0.0359293
10944.5	72.52	0.0358506
10950.5	72.42	0.0357522
10956.5	72.32	0.0356469
10962.5	72.22	0.0355010
10968.5	72.12	0.0353998
10974.5	72.02	0.0353248
10980.5	71.92	0.0352681
10986.5	71.82	0.0351906
10992.5	71.72	0.0351206
10998.5	71.62	0.0349947
11004.5	71.52	0.0348951
11010.5	71.42	0.0348027
11016.5	71.32	0.0347359
11022.5	71.22	0.0346728
11028.5	71.12	0.0345907
11034.5	71.02	0.0344798
11040.5	70.92	0.0343887
11046.5	70.82	0.0342961
11052.5	70.72	0.0342051
11058.5	70.62	0.0341566
11064.5	70.52	0.0340666
11070.5	70.42	0.0339712
11076.5	70.32	0.0338669
11082.5	70.22	0.0338108
11088.5	70.12	0.0337538
11094.5	70.02	0.0337066
11100.5	69.92	0.0336699
11106.5	69.82	0.0335992
11112.5	69.72	0.0335664
11118.5	69.62	0.0335031
11124.5	69.52	0.0334570
11130.5	69.42	0.0333709
11136.5	69.32	0.0332868
11142.5	69.22	0.0331771
11148.5	69.12	0.0331221
11154.5	69.02	0.0330600
11160.5	68.92	0.0330186
11166.5	68.82	0.0330283
11172.5	68.72	0.0330013
11178.5	68.62	0.0329274
11184.5	68.52	0.0328615
11190.5	68.42	0.0328209
11196.5	68.32	0.0327699
11202.5	68.22	0.0327521
11208.5	68.12	0.0327077
11214.5	68.02	0.0326538
11220.5	67.92	0.0325990
11226.5	67.82	0.0325296
11232.5	67.72	0.0324322
11238.5	67.62	0.0323681
11244.5	67.52	0.0323381
11250.5	67.42	0.0323108
11256.5	67.32	0.0322547
11262.5	67.22	0.0321979
11268.5	67.12	0.0321548
11274.5	67.02	0.0320933
11280.5	66.92	0.0320491
11286.5	66.82	0.0319998
11292.5	66.72	0.0319218
11298.5	66.62	0.0318753
11304.5	66.52	0.0318447
11310.5	66.42	0.0318209
11316.5	66.32	0.0318204
11322.5	66.22	0.0317885
11328.5	66.12	0.0317668
11334.5	66.02	0.0317407
11340.5	65.92	0.0317111
11346.5	65.82	0.0316949
11352.5	65.72	0.0316291
11358.5	65.62	0.0315576
11364.5	65.52	0.0315359
11370.5	65.42	0.0314884
11376.5	65.31	0.0313960
11382.5	65.22	0.0313464
11388.5	65.12	0.0312788
11394.5	65.02	0.0312782
11400.5	64.92	0.0312319
11406.5	64.82	0.0312119
11412.5	64.72	0.0311859
11418.5	64.62	0.0311606
11424.5	64.52	0.0311392
11430.5	64.42	0.0310771
11436.5	64.32	0.0310696
11442.5	64.22	0.0310370
11448.5	64.12	0.0310276
11454.5	64.02	0.0309642
11460.5	63.92	0.0309252
11466.5	63.81	0.0308701
11472.5	63.72	0.0307906
11478.5	63.62	0.0307491
11484.5	63.52	0.0307394
11490.5	63.42	0.0307545
11496.5	63.32	0.0307309
11502.5	63.22	0.0307173
11508.5	63.12	0.0307228
11514.5	63.02	0.0306733
11520.5	62.92	0.0306510
11526.5	62.82	0.0306432
11532.5	62.72	0.0306052
11538.5	62.62	0.0305328
11544.5	62.52	0.0305444
11550.5	62.42	0.0305468
11556.5	62.32	0.0305205
11562.5	62.22	0.0305199
11568.5	62.12	0.0305296
11574.5	62.02	0.0304643
11580.5	61.92	0.0304134
11586.5	61.82	0.0304136
11592.5	61.72	0.0303828
11598.5	61.62	0.0303262
11604.5	61.52	0.0303293
11610.5	61.42	0.0303349
11616.5	61.32	0.0303036
11622.5	61.22	0.0302790
11628.5	61.12	0.0302677
11634.5	61.02	0.0302252
11640.5	60.91	0.0301889
11646.5	60.82	0.0301990
11652.5	60.72	0.0301380
11658.5	60.62	0.0301700
11664.5	60.52	0.0301514
11670.5	60.42	0.0301013
11676.5	60.32	0.0300697
11682.5	60.22	0.0300854
11688.5	60.12	0.0300419
11694.5	60.02	0.0299998
11700.5	59.92	0.0299999
11706.5	59.81	0.0299872
11712.5	59.72	0.0299781
11718.5	59.62	0.0299474
11724.5	59.52	0.0298856
11730.5	59.42	0.0298594
11736.5	59.32	0.0298457
11742.5	59.22	0.0298119
11748.5	59.12	0.0298581
11754.5	59.02	0.0298832
11760.5	58.92	0.0298553
11766.5	58.81	0.0298422
11772.5	58.72	0.0298356
11778.5	58.62	0.0297880
11784.5	58.52	0.0297655
11790.5	58.41	0.0297754
11796.5	58.32	0.0297857
11802.5	58.22	0.0297850
11808.5	58.12	0.0297659
11814.5	58.02	0.0297201
11820.5	57.92	0.0296390
11826.5	57.82	0.0296419
11832.5	57.72	0.0296318
11838.5	57.62	0.0296188
11844.5	57.52	0.0296479
11850.5	57.42	0.0295750
11856.5	57.32	0.0295656
11862.5	57.22	0.0295742
11868.5	57.11	0.0295581
11874.5	57.02	0.0295465
11880.5	56.92	0.0295329
11886.5	56.82	0.0295348
11892.5	56.71	0.0295084
11898.5	56.61	0.0294972
11904.5	56.51	0.0295066
11910.5	56.41	0.0294797
11916.5	56.31	0.0294774
11922.5	56.22	0.0294553
11928.5	56.12	0.0293832
11934.5	56.02	0.0293839
11940.5	55.92	0.0293860
11946.5	55.81	0.0293824
11952.5	55.72	0.0293814
11958.5	55.61	0.0293204
11964.5	55.52	0.0293516
11970.5	55.42	0.0293185
11976.5	55.31	0.0293288
11982.5	55.21	0.0293382
11988.5	55.12	0.0293470
11994.5	55.02	0.0292842
12000.5	54.92	0.0292531
12006.5	54.82	0.0293265
12012.5	54.72	0.0293230
12018.5	54.62	0.0293208
12024.5	54.52	0.0292927
12030.5	54.41	0.0292329
12036.5	54.31	0.0292576
12042.5	54.22	0.0291778
12048.5	54.12	0.0291669
12054.5	54.02	0.0291383
12060.5	53.91	0.0291883
12066.5	53.82	0.0291748
12072.5	53.72	0.0291743
12078.5	53.61	0.0291044
12084.5	53.51	0.0291169
12090.5	53.42	0.0290951
12096.5	53.31	0.0290831
12102.5	53.22	0.0290809
12108.5	53.11	0.0290324
12114.5	53.01	0.0290168
12120.5	52.91	0.0289925
12126.5	52.82	0.0289865
12132.5	52.71	0.0289693
12138.5	52.61	0.0289816
12144.5	52.51	0.0289945
12150.5	52.42	0.0290086
12156.5	52.32	0.0289959
12162.5	52.22	0.0289730
12168.5	52.11	0.0289910
12174.5	52.02	0.0289598
12180.5	51.92	0.0289361
12186.5	51.81	0.0289718
12192.5	51.72	0.0289513
12198.5	51.61	0.0289766
12204.5	51.52	0.0289433
12210.5	51.42	0.0289241
12216.5	51.32	0.0289179
12222.5	51.21	0.0289039
12228.5	51.11	0.0289062
12234.5	51.01	0.0289197
12240.5	50.91	0.0289171
12246.5	50.81	0.0289008
12252.5	50.72	0.0288273
12258.5	50.61	0.0287792
12264.5	50.52	0.0287735
12270.5	50.42	0.0288092
12276.5	50.31	0.0287625
12282.5	50.21	0.0288033
12288.5	50.11	0.0287508
12294.5	50.02	0.0287740
12300.5	49.91	0.0287642
12306.5	49.82	0.0287504
12312.5	49.71	0.0287588
12318.5	49.62	0.0286759
12324.5	49.52	0.0286751
12330.5	49.42	0.0286867
12336.5	49.31	0.0287309
12342.5	49.21	0.0287681
12348.5	49.11	0.0286951
12354.5	49.02	0.0286684
12360.5	48.92	0.0286339
12366.5	48.81	0.0286673
12372.5	48.71	0.0286781
12378.5	48.61	0.0286594
12384.5	48.51	0.0286581
12390.5	48.41	0.0286123
12396.5	48.31	0.0285492
12402.5	48.21	0.0284795
12408.5	48.11	0.0284542
12414.5	48.01	0.0284855
12420.5	47.91	0.0285120
12426.5	47.81	0.0285056
12432.5	47.72	0.0285435
12438.5	47.61	0.0285845
12444.5	47.51	0.0286573
12450.5	47.42	0.0287196
12456.5	47.31	0.0286648
12462.5	47.21	0.0286148
12468.5	47.11	0.0285621
12474.5	47.01	0.0285155
12480.5	46.91	0.0284997
12486.5	46.81	0.0284878
12492.5	46.71	0.0284351
12498.5	46.61	0.0284157
12504.5	46.51	0.0283775
12510.5	46.41	0.0283829
12516.5	46.32	0.0284123
12522.5	46.22	0.0284620
12528.5	46.12	0.0285243
12534.5	46.01	0.0285317
12540.5	45.91	0.0285001
12546.5	45.81	0.0284648
12552.5	45.72	0.0284258
12558.5	45.61	0.0284381
12564.5	45.51	0.0285048
12570.5	45.41	0.0284950
12576.5	45.31	0.0285210
12582.5	45.21	0.0284388
12588.5	45.11	0.0283958
12594.5	45.01	0.0283941
12600.5	44.91	0.0283633
12606.5	44.81	0.0283475
12612.5	44.71	0.0283324
12618.5	44.61	0.0283530
12624.5	44.51	0.0283461
12630.5	44.41	0.0283019
12636.5	44.31	0.0282850
12642.5	44.21	0.0283027
12648.5	44.11	0.0283244
12654.5	44.02	-0.0143620
12660.5	44.56	0.336172
12666.5	45.36	3.56583
12672.5	45.36	3.74971
12678.5	45.55	4.43015
12684.5	44.71	2.78329
12690.5	43.85	1.13923
12696.5	43.47	0.454962
12702.5	43.27	0.186668
12708.5	43.14	0.0871540
12714.5	43.02	0.0500964
12720.5	42.92	0.0370447
12726.5	42.82	0.0329975
12732.5	42.71	0.0311612
12738.5	42.61	0.0297609
12744.5	42.51	0.0285396
12750.5	42.41	0.0275999
12756.5	42.31	0.0269335
12762.5	42.21	0.0263734
12768.5	42.11	0.0259403
12774.5	42.01	0.0256136
12780.5	41.91	0.0254148
12786.5	41.81	0.0251986
12792.5	41.71	0.0250567
12798.5	41.61	0.0248881
12804.5	41.51	0.0247104
12810.5	41.41	0.0246101
12816.5	41.31	0.0245396
12822.5	41.21	0.0243757
12828.5	41.11	0.0242594
12834.5	41.01	0.0241767
12840.5	40.91	0.0240832
12846.5	40.81	0.0240599
12852.5	40.71	0.0239690
12858.5	40.61	0.0239228
12864.5	40.51	0.0238907
12870.5	40.41	0.0238511
12876.5	40.31	0.0237898
12882.5	40.21	0.0236705
12888.5	40.11	0.0235986
12894.5	40.01	0.0235537
12900.5	39.91	0.0235188
12906.5	39.81	0.0234833
12912.5	39.71	0.0233970
12918.5	39.61	0.0233470
12924.5	39.51	0.0232717
12930.5	39.41	0.0232515
12936.5	39.31	0.0232525
12942.5	39.21	0.0231978
12948.5	39.11	0.0231483
12954.5	39.01	0.0231030
12960.5	38.91	0.0230819
12966.5	38.81	0.0230634
12972.5	38.71	0.0230241
12978.5	38.61	0.0230034
12984.5	38.51	0.0229017
12990.5	38.41	0.0228618
12996.5	38.31	0.0227920
13002.5	38.21	0.0227373
13008.5	38.11	0.0227360
13014.5	38.01	0.0226864
13020.5	37.91	0.0226606
13026.5	37.81	0.0226634
13032.5	37.71	0.0226301
13038.5	37.61	0.0225975
13044.5	37.51	0.0225544
13050.5	37.41	0.0225272
13056.5	37.31	0.0225137
13062.5	37.21	0.0225077
13068.5	37.11	0.0224600
13074.5	37.01	0.0223889
13080.5	36.91	0.0223359
13086.5	36.81	0.0222994
13092.5	36.71	0.0222773
13098.5	36.61	0.0222579
13104.5	36.51	0.0222663
13110.5	36.41	0.0222275
13116.5	36.31	0.0221545
13122.5	36.21	0.0221456
13128.5	36.11	0.0221266
13134.5	36.01	0.0220704
13140.5	35.91	0.0220800
13146.5	35.81	0.0220949
13152.5	35.71	0.0220831
13158.5	35.61	0.0220543
13164.5	35.51	0.0220063
13170.5	35.41	0.0219897
13176.5	35.31	0.0219253
13182.5	35.21	0.0218979
13188.5	35.11	0.0218530
13194.5	35.01	0.0218227
13200.5	34.91	0.0217814
13206.5	34.81	0.0217652
13212.5	34.71	0.0217731
13218.5	34.61	0.0217880
13224.5	34.51	0.0217565
13230.5	34.41	0.0217352
13236.5	34.31	0.0217145
13242.5	34.21	0.0216270
13248.5	34.11	0.0216218
13254.5	34.01	0.0216425
13260.5	33.91	0.0216272
13266.5	33.81	0.0216035
13272.5	33.71	0.0215921
13278.5	33.61	0.0215646
13284.5	33.51	0.0215388
13290.5	33.41	0.0215369
13296.5	33.31	0.0215303
13302.5	33.21	0.0215601
13308.5	33.11	0.0215157
13314.5	33.01	0.0214997
13320.5	32.91	0.0214106
13326.5	32.81	0.0213379
13332.5	32.71	0.0213896
13338.5	32.61	0.0214000
13344.5	32.51	0.0213749
13350.5	32.41	0.0213492
13356.5	32.31	0.0213233
13362.5	32.21	0.0213255
13368.5	32.11	0.0213092
13374.5	32.01	0.0212987
13380.5	31.91	0.0212648
13386.5	31.81	0.0212677
13392.5	31.71	0.0212413
13398.5	31.61	0.0212016
13404.5	31.51	0.0211559
13410.5	31.41	0.0211259
13416.5	31.31	0.0210903
13422.5	31.21	0.0210718
13428.5	31.11	0.0210823
13434.5	31.01	0.0210730
13440.5	30.91	0.0210385
13446.5	30.81	0.0210174
13452.5	30.71	0.0210042
13458.5	30.61	0.0209675
13464.5	30.51	0.0209689
13470.5	30.41	0.0209513
13476.5	30.31	0.0209087
13482.5	30.21	0.0208958
13488.5	30.11	0.0208731
13494.5	30.01	0.0208709
13500.5	29.91	0.0208525
13506.5	29.81	0.0208397
13512.5	29.71	0.0208261
13518.5	29.61	0.0208203
13524.5	29.51	0.0207897
13530.5	29.41	0.0207743
13536.5	29.31	0.0208013
13542.5	29.21	0.0208031
13548.5	29.11	0.0207608
13554.5	29.01	0.0207603
13560.5	28.91	0.0207547
13566.5	28.81	0.0207342
13572.5	28.71	0.0206970
13578.5	28.61	0.0206517
13584.5	28.51	0.0206684
13590.5	28.41	0.0206557
13596.5	28.31	0.0206106
13602.5	28.21	0.0206130
13608.5	28.11	0.0205998
13614.5	28.01	0.0205531
13620.5	27.91	0.0204979
13626.5	27.81	0.0204754
13632.5	27.71	0.0204799
13638.5	27.61	0.0204658
13644.5	27.51	0.0204766
13650.5	27.41	0.0204531
13656.5	27.31	0.0204694
13662.5	27.21	0.0204506
13668.5	27.11	0.0204507
13674.5	27.01	0.0204157
13680.5	26.91	0.0204062
13686.5	26.81	0.0203616
13692.5	26.71	0.0202997
13698.5	26.61	0.0203098
13704.5	26.51	0.0203024
13710.5	26.41	0.0203290
13716.5	26.31	0.0203250
13722.5	26.21	0.0203284
13728.5	26.11	0.0203189
13734.5	26.01	0.0203026
13740.5	25.91	0.0202879
13746.5	25.81	0.0202504
13752.5	25.71	0.0201787
13758.5	25.61	0.0201883
13764.5	25.51	0.0201268
13770.5	25.41	0.0201276
13776.5	25.31	0.0201351
13782.5	25.21	0.0201172
13788.5	25.11	0.0201251
13794.5	25.01	0.0201045
13800.5	24.91	0.0201015
13806.5	24.81	0.0200919
13812.5	24.71	0.0200947
13818.5	24.61	0.0200933
13824.5	24.51	0.0200900
13830.5	24.41	0.0200826
13836.5	24.31	0.0200727
13842.5	24.21	0.0200400
13848.5	24.11	0.0200399
13854.5	24.01	0.0200386
13860.5	23.91	0.0200144
13866.5	23.81	0.0199917
13872.5	23.71	0.0200086
13878.5	23.61	0.0200333
13884.5	23.51	0.0200143
13890.5	23.41	0.0200144
13896.5	23.31	0.0199712
13902.5	23.21	0.0199637
13908.5	23.11	0.0199323
13914.5	23.01	0.0198914
13920.5	22.91	0.0198468
13926.5	22.81	0.0198326
13932.5	22.71	0.0198355
13938.5	22.61	0.0198160
13944.5	22.51	0.0197979
13950.5	22.41	0.0198017
13956.5	22.31	0.0197909
13962.5	22.21	0.0197856
13968.5	22.11	0.0198001
13974.5	22.01	0.0197753
13980.5	21.91	0.0197621
13986.5	21.81	0.0197889
13992.5	21.71	0.0197793
13998.5	21.61	0.0197858
14004.5	21.51	0.0197361
14010.5	21.41	0.0196933
14016.5	21.31	0.0196839
14022.5	21.21	0.0196653
14028.5	21.11	0.0196057
14034.5	21.01	0.0195603
14040.5	20.91	0.0195691
14046.5	20.81	0.0195737
14052.5	20.71	0.0195989
14058.5	20.61	0.0196049
14064.5	20.51	0.0196237
14070.5	20.41	0.0196322
14076.5	20.31	0.0198663
14082.5	20.21	0.0200311
14088.5	20.11	0.0200389
14094.5	20.01	0.0199715
14100.5	19.91	0.0198846
14106.5	19.81	0.0197631
14112.5	19.71	0.0196625
14118.5	19.61	0.0195816
14124.5	19.51	0.0195192
14130.5	19.41	0.0195147
14136.5	19.31	0.0194529
14142.5	19.21	0.0193936
14148.5	19.11	0.0193626
14154.5	19.01	0.0193229
14160.5	18.91	0.0193006
14166.5	18.81	0.0192662
14172.5	18.71	0.0192480
14178.5	18.61	0.0193767
14184.5	18.51	0.0194280
14190.5	18.41	0.0193818
14196.5	18.31	0.0193241
14202.5	18.21	0.0192858
14208.5	18.11	0.0192687
14214.5	18.01	0.0192602
14220.5	17.91	0.0192709
14226.5	17.81	0.0192507
14232.5	17.71	0.0192151
14238.5	17.61	0.0191741
14244.5	17.51	0.0191679
14250.5	17.41	0.0191775
14256.5	17.31	0.0191711
14262.5	17.21	0.0191541
14268.5	17.11	0.0192571
14274.5	17.01	0.0193312
14280.5	16.91	0.0195598
14286.5	16.81	0.0195054
14292.5	16.71	0.0194116
14298.5	16.61	0.0193000
14304.5	16.51	0.0191725
14310.5	16.41	0.0191059
14316.5	16.31	0.0191007
14322.5	16.21	0.0190791
14328.5	16.11	0.0190554
14334.5	16.01	0.0190038
14340.5	15.91	0.0189443
14346.5	15.81	0.0189287
14352.5	15.71	0.0188875
14358.5	15.61	0.0188655
14364.5	15.51	0.0188545
14370.5	15.41	0.0188184
14376.5	15.31	0.0188227
14382.5	15.21	0.0188310
14388.5	15.11	0.0188144
14394.5	15.01	0.0188043
14400.5	14.91	0.0187894
14406.5	14.81	0.0187979
14412.5	14.71	0.0188004
14418.5	14.61	0.0188195
14424.5	14.51	0.0187645
14430.5	14.41	0.0187520
14436.5	14.31	0.0187164
14442.5	14.21	0.0186672
14448.5	14.11	0.0186435
14454.5	14.01	0.0186332
14460.5	13.91	0.0185903
14466.5	13.81	0.0185749
14472.5	13.71	0.0185846
14478.5	13.61	0.0185674
14484.5	13.51	0.0185877
14490.5	13.41	0.0185939
14496.5	13.31	0.0185875
14502.5	13.21	0.0185970
14508.5	13.11	0.0185706
14514.5	13.01	0.0185237
14520.5	12.91	0.0185531
14526.5	12.81	0.0185475
14532.5	12.71	0.0184903
14538.5	12.61	0.0184724
14544.5	12.51	0.0185046
14550.5	12.41	0.0185062
14556.5	12.31	0.0184807
14562.5	12.21	0.0184668
14568.5	12.11	0.0184576
14574.5	12.01	0.0184711
14580.5	11.91	0.0184723
14586.5	11.81	0.0184651
14592.5	11.71	0.0184349
14598.5	11.61	0.0184084
14604.5	11.51	0.0183698
14610.5	11.41	0.0183603
14616.5	11.31	0.0183115
14622.5	11.21	0.0182901
14628.5	11.11	0.0182712
14634.5	11.01	0.0182718
14640.5	10.91	0.0182383
14646.5	10.81	0.0182360
14652.5	10.71	0.0182316
14658.5	10.61	0.0182176
14664.5	10.51	0.0182135
14670.5	10.41	0.0181756
14676.5	10.31	0.0181452
14682.5	10.21	0.0181556
14688.5	10.11	0.0181848
14694.5	10.01	0.0181682
14700.5	9.91	0.0181590
14706.5	9.81	0.0181630
14712.5	9.71	0.0181502
14718.5	9.61	0.0181012
14724.5	9.51	0.0180721
14730.5	9.41	0.0181012
14736.5	9.30	0.0180851
14742.5	9.20	0.0180884
14748.5	9.10	0.0180084
14754.5	9.01	0.0179482
14760.5	8.91	0.0179493
14766.5	8.81	0.0179377
14772.5	8.71	0.0179406
14778.5	8.61	0.0179642
14784.5	8.51	0.0179331
14790.5	8.40	0.0179255
14796.5	8.31	0.0179549
14802.5	8.20	0.0178986
14808.5	8.11	0.0179339
14814.5	8.01	0.0178808
14820.5	7.91	0.0178079
14826.5	7.81	0.0178276
14832.5	7.71	0.0178088
14838.5	7.61	0.0177939
14844.5	7.51	0.0178056
14850.5	7.41	0.0178479
14856.5	7.31	0.0178625
14862.5	7.21	0.0178396
14868.5	7.11	0.0178058
14874.5	7.01	0.0177880
14880.5	6.91	0.0178169
14886.5	6.81	0.0177890
14892.5	6.71	0.0177787
14898.5	6.61	0.0178101
14904.5	6.51	0.0178047
14910.5	6.41	0.0178036
14916.5	6.31	0.0178029
14922.5	6.21	0.0177946
14928.5	6.11	0.0177646
14934.5	6.01	0.0177391
14940.5	5.90	0.0177071
14946.5	5.81	0.0176347
14952.5	5.71	0.0176097
14958.5	5.61	0.0175696
14964.5	5.51	0.0175601
14970.5	5.41	0.0175499
14976.5	5.31	0.0175244
14982.5	5.21	0.0175218
14988.5	5.10	0.0175482
14994.5	5.00	0.0175490
15000.5	4.91	0.0174767
15006.5	4.81	0.0174493
15012.5	4.71	0.0173996
15018.5	4.61	0.0174011
15024.5	4.51	0.0173724
15030.5	4.41	0.0174230
15036.5	4.31	0.0173725
15042.5	4.20	0.0173868
15048.5	4.11	0.0173965
15054.5	4.01	0.0173931
15060.5	3.91	0.0173756
15066.5	3.81	0.0173681
15072.5	3.71	0.0173463
15078.5	3.61	0.0173429
15084.5	3.51	0.0173424
15090.5	3.40	0.0173730
15096.5	3.30	0.0173709
15102.5	3.21	0.0173732
15108.5	3.11	0.0173694
15114.5	3.00	0.0173751
15120.5	2.91	0.0173586
15126.5	2.81	0.0173799
15132.5	2.71	0.0173728
15138.5	2.61	0.0173389
15144.5	2.51	0.0172684
15150.5	2.41	0.0172621
15156.5	2.31	0.0172374
15162.5	2.21	0.0172141
15168.5	2.11	0.0172226
15174.5	2.01	0.0172266
15180.5	1.91	0.0172160
15186.5	1.81	0.0171941
15192.5	1.71	0.0171821
15198.5	1.61	0.0171835
15204.5	1.51	0.0171845
15210.5	1.41	0.0171926
15216.5	1.31	0.0172054
15222.5	1.20	0.0172436
15228.5	1.10	0.0172174
15234.5	1.00	0.0172415
15240.5	0.90	0.0172225
15246.5	0.80	0.0172262
15252.5	0.71	0.0172081
15258.5	0.60	0.0172119
15264.5	0.50	0.0172532
15270.5	0.40	0.0172427
15276.5	0.30	0.0172334
15282.5	0.21	0.0171804
15288.5	0.11	0.0171923
15294.5	0.00	0.0171960
15300.4	-0.09	0.0172229