File: Differential scanning calorimetry/12OCB Squalene/12OCB SqE wt fraction 211.txt
Filename	Sq12OCB211T150
Instrument name	DSC2A-00101 (192.168.10.4)
Operator	Yuma
rundate	2/7/2021
Sample name	Sq12OCB211T150
proceduresegments	Jump 100.00 °C; Isothermal 10.0 min; Jump 0.00 °C; Isothermal 5.0 min; Mark End of Cycle ; Ramp 5.00 °C/min to 100.00 °C; Mark End of Cycle ; Ramp 5.00 °C/min to 0.00 °C; Mark End of Cycle ; Ramp 5.00 °C/min to 100.00 °C; Mark End of Cycle ; Ramp 1.00 °C/min to 0.00 °C; Mark End of Cycle ; Ramp 5.00 °C/min to 100.00 °C; Mark End of Cycle ; Ramp 10.00 °C/min to 0.00 °C; Mark End of Cycle ; Ramp 10.00 °C/min to 100.00 °C; Mark End of Cycle ; Jump 0.00 °C; Mark End of Cycle
[step]
Ramp 1.00 °C/min to 0.00 °C
Time	Temperature	Heat Flow (Normalized)
s	°C	W/g
4500.30	99.00	-0.162155
4504.30	99.31	-0.223568
4508.30	99.49	-0.230036
4512.30	99.55	-0.116248
4516.30	99.54	-0.0472713
4520.30	99.51	-0.0104639
4524.30	99.46	0.0102314
4528.30	99.40	0.0213426
4532.30	99.34	0.0266658
4536.30	99.27	0.0290077
4540.30	99.21	0.0301923
4544.30	99.14	0.0310821
4548.30	99.08	0.0318765
4552.30	99.01	0.0325308
4556.30	98.94	0.0330435
4560.30	98.88	0.0334706
4564.30	98.81	0.0338112
4568.30	98.74	0.0340066
4572.30	98.68	0.0341524
4576.30	98.61	0.0342126
4580.30	98.54	0.0342948
4584.30	98.48	0.0343610
4588.30	98.41	0.0343883
4592.30	98.35	0.0343875
4596.30	98.28	0.0343750
4600.30	98.21	0.0343970
4604.30	98.15	0.0343847
4608.30	98.08	0.0344121
4612.30	98.01	0.0343782
4616.30	97.95	0.0343581
4620.30	97.88	0.0343514
4624.30	97.81	0.0343806
4628.30	97.75	0.0343802
4632.30	97.68	0.0343794
4636.30	97.61	0.0343732
4640.30	97.55	0.0343292
4644.30	97.48	0.0342872
4648.30	97.41	0.0342672
4652.30	97.35	0.0342538
4656.30	97.28	0.0341940
4660.30	97.22	0.0341729
4664.30	97.15	0.0341702
4668.30	97.08	0.0341513
4672.30	97.01	0.0341683
4676.30	96.95	0.0341763
4680.30	96.88	0.0341625
4684.30	96.81	0.0341457
4688.30	96.75	0.0341369
4692.30	96.68	0.0340975
4696.30	96.61	0.0340808
4700.30	96.55	0.0340555
4704.30	96.48	0.0340401
4708.30	96.41	0.0340227
4712.30	96.35	0.0339749
4716.30	96.28	0.0339997
4720.30	96.21	0.0339091
4724.30	96.15	0.0339229
4728.30	96.08	0.0339016
4732.30	96.02	0.0338721
4736.30	95.95	0.0338314
4740.30	95.88	0.0338333
4744.30	95.81	0.0338059
4748.30	95.75	0.0337964
4752.30	95.68	0.0338186
4756.30	95.61	0.0338037
4760.30	95.55	0.0337717
4764.30	95.48	0.0337660
4768.30	95.41	0.0337333
4772.30	95.35	0.0337001
4776.30	95.28	0.0336830
4780.30	95.21	0.0336863
4784.30	95.15	0.0336566
4788.30	95.08	0.0336190
4792.30	95.01	0.0336335
4796.30	94.95	0.0336135
4800.30	94.88	0.0335758
4804.30	94.81	0.0335201
4808.30	94.75	0.0335207
4812.30	94.68	0.0335169
4816.30	94.62	0.0335106
4820.30	94.55	0.0335117
4824.30	94.48	0.0335243
4828.30	94.41	0.0335105
4832.30	94.35	0.0335027
4836.30	94.28	0.0334954
4840.30	94.22	0.0334501
4844.30	94.15	0.0334427
4848.30	94.08	0.0334344
4852.30	94.02	0.0334022
4856.30	93.95	0.0333958
4860.30	93.88	0.0333776
4864.30	93.81	0.0333705
4868.30	93.75	0.0333803
4872.30	93.68	0.0333722
4876.30	93.61	0.0333361
4880.30	93.55	0.0333598
4884.30	93.48	0.0333284
4888.30	93.42	0.0333008
4892.30	93.35	0.0333264
4896.30	93.28	0.0332866
4900.30	93.21	0.0332817
4904.30	93.15	0.0332631
4908.30	93.08	0.0332878
4912.30	93.02	0.0332614
4916.30	92.95	0.0332178
4920.30	92.88	0.0332000
4924.30	92.82	0.0332323
4928.30	92.75	0.0332114
4932.30	92.68	0.0332224
4936.30	92.62	0.0332269
4940.30	92.55	0.0332103
4944.30	92.48	0.0332121
4948.30	92.41	0.0332048
4952.30	92.35	0.0331872
4956.30	92.28	0.0331839
4960.30	92.21	0.0331786
4964.30	92.15	0.0331726
4968.30	92.08	0.0331556
4972.30	92.01	0.0331600
4976.30	91.95	0.0331361
4980.30	91.88	0.0331237
4984.30	91.81	0.0331345
4988.30	91.75	0.0331219
4992.30	91.68	0.0331221
4996.30	91.62	0.0331245
5000.30	91.55	0.0331422
5004.30	91.48	0.0331542
5008.30	91.41	0.0331411
5012.30	91.35	0.0331235
5016.30	91.28	0.0330653
5020.30	91.22	0.0330464
5024.30	91.15	0.0330675
5028.30	91.08	0.0330592
5032.30	91.01	0.0330584
5036.30	90.95	0.0330249
5040.30	90.88	0.0330040
5044.30	90.82	0.0330053
5048.30	90.75	0.0329996
5052.30	90.68	0.0329652
5056.30	90.62	0.0329936
5060.30	90.55	0.0329888
5064.30	90.48	0.0330022
5068.30	90.42	0.0330250
5072.30	90.35	0.0330082
5076.30	90.28	0.0329941
5080.30	90.22	0.0329739
5084.30	90.15	0.0329521
5088.30	90.08	0.0329464
5092.30	90.02	0.0329276
5096.30	89.95	0.0329327
5100.30	89.88	0.0329246
5104.30	89.82	0.0329072
5108.30	89.75	0.0329230
5112.30	89.68	0.0328912
5116.30	89.62	0.0328716
5120.30	89.55	0.0328700
5124.30	89.48	0.0328674
5128.30	89.42	0.0328707
5132.30	89.35	0.0328275
5136.30	89.28	0.0328308
5140.30	89.22	0.0328514
5144.30	89.15	0.0328463
5148.30	89.08	0.0327977
5152.30	89.02	0.0328062
5156.30	88.95	0.0327859
5160.30	88.88	0.0328131
5164.30	88.82	0.0328280
5168.30	88.75	0.0328073
5172.30	88.68	0.0327900
5176.30	88.62	0.0328158
5180.30	88.55	0.0328249
5184.30	88.48	0.0328512
5188.30	88.42	0.0328404
5192.30	88.35	0.0328083
5196.30	88.28	0.0327867
5200.30	88.22	0.0327567
5204.30	88.15	0.0327643
5208.30	88.08	0.0327435
5212.30	88.02	0.0327647
5216.30	87.95	0.0327531
5220.30	87.88	0.0327521
5224.30	87.82	0.0327273
5228.30	87.75	0.0327214
5232.30	87.68	0.0327560
5236.30	87.62	0.0327376
5240.30	87.55	0.0327057
5244.30	87.48	0.0326949
5248.30	87.42	0.0327140
5252.30	87.35	0.0326989
5256.30	87.28	0.0327208
5260.30	87.22	0.0327216
5264.30	87.15	0.0327263
5268.30	87.08	0.0327119
5272.30	87.02	0.0327402
5276.30	86.95	0.0327281
5280.30	86.88	0.0327148
5284.30	86.82	0.0327119
5288.30	86.75	0.0326905
5292.30	86.68	0.0326928
5296.30	86.62	0.0326437
5300.30	86.55	0.0326348
5304.30	86.48	0.0326043
5308.30	86.42	0.0326192
5312.30	86.35	0.0326166
5316.30	86.28	0.0326311
5320.30	86.21	0.0326293
5324.30	86.15	0.0326173
5328.30	86.08	0.0325624
5332.30	86.02	0.0325897
5336.30	85.95	0.0326194
5340.30	85.88	0.0326528
5344.30	85.82	0.0326413
5348.30	85.75	0.0326634
5352.30	85.68	0.0326348
5356.30	85.62	0.0326397
5360.30	85.55	0.0326217
5364.30	85.48	0.0326253
5368.30	85.42	0.0325836
5372.30	85.35	0.0325948
5376.30	85.28	0.0326086
5380.30	85.22	0.0326205
5384.30	85.15	0.0325848
5388.30	85.08	0.0325800
5392.30	85.02	0.0325782
5396.30	84.95	0.0325865
5400.30	84.88	0.0326078
5404.30	84.82	0.0326031
5408.30	84.75	0.0325955
5412.30	84.68	0.0325462
5416.30	84.62	0.0325556
5420.30	84.55	0.0325505
5424.30	84.48	0.0325795
5428.30	84.42	0.0326039
5432.30	84.35	0.0325945
5436.30	84.28	0.0325669
5440.30	84.22	0.0325789
5444.30	84.15	0.0325712
5448.30	84.08	0.0325383
5452.30	84.02	0.0325424
5456.30	83.95	0.0325623
5460.30	83.88	0.0325613
5464.30	83.82	0.0325307
5468.30	83.75	0.0325615
5472.30	83.68	0.0325796
5476.30	83.62	0.0325761
5480.30	83.55	0.0325767
5484.30	83.48	0.0325761
5488.30	83.42	0.0326103
5492.30	83.35	0.0326149
5496.30	83.28	0.0326110
5500.30	83.22	0.0325894
5504.30	83.15	0.0325946
5508.30	83.08	0.0325960
5512.30	83.02	0.0326256
5516.30	82.95	0.0326001
5520.30	82.88	0.0325937
5524.30	82.82	0.0325525
5528.30	82.75	0.0325660
5532.30	82.68	0.0326015
5536.30	82.62	0.0326213
5540.30	82.55	0.0325991
5544.30	82.48	0.0325741
5548.30	82.42	0.0325943
5552.30	82.35	0.0325664
5556.30	82.28	0.0325810
5560.30	82.22	0.0326158
5564.30	82.15	0.0325940
5568.30	82.08	0.0325874
5572.30	82.02	0.0325855
5576.30	81.95	0.0326120
5580.30	81.88	0.0326083
5584.30	81.82	0.0325869
5588.30	81.75	0.0326180
5592.30	81.68	0.0326186
5596.30	81.62	0.0325358
5600.30	81.55	0.0325283
5604.30	81.48	0.0325124
5608.30	81.42	0.0325063
5612.30	81.35	0.0325425
5616.30	81.28	0.0325641
5620.30	81.22	0.0325755
5624.30	81.15	0.0325716
5628.30	81.08	0.0325626
5632.30	81.02	0.0325817
5636.30	80.95	0.0325404
5640.30	80.88	0.0325500
5644.30	80.82	0.0325720
5648.30	80.75	0.0325945
5652.30	80.68	0.0326011
5656.30	80.62	0.0325658
5660.30	80.55	0.0326420
5664.30	80.48	0.0326418
5668.30	80.42	0.0326299
5672.30	80.35	0.0326500
5676.30	80.28	0.0326653
5680.30	80.22	0.0326505
5684.30	80.15	0.0326279
5688.30	80.08	0.0326426
5692.30	80.02	0.0326479
5696.30	79.95	0.0326470
5700.30	79.88	0.0326185
5704.30	79.82	0.0326821
5708.30	79.75	0.0326478
5712.30	79.68	0.0326753
5716.30	79.62	0.0326712
5720.30	79.55	0.0326918
5724.30	79.48	0.0326814
5728.30	79.42	0.0326946
5732.30	79.35	0.0326782
5736.30	79.28	0.0326813
5740.30	79.22	0.0326848
5744.30	79.15	0.0326345
5748.30	79.08	0.0326226
5752.30	79.02	0.0326779
5756.30	78.95	0.0326534
5760.30	78.88	0.0326458
5764.30	78.82	0.0326533
5768.30	78.75	0.0326794
5772.30	78.68	0.0326758
5776.30	78.62	0.0326940
5780.30	78.55	0.0326703
5784.30	78.48	0.0326745
5788.30	78.42	0.0327221
5792.30	78.35	0.0327675
5796.30	78.28	0.0327408
5800.30	78.22	0.0327302
5804.30	78.15	0.0327489
5808.30	78.08	0.0327563
5812.30	78.02	0.0327441
5816.30	77.95	0.0327393
5820.30	77.88	0.0327432
5824.30	77.82	0.0327299
5828.30	77.75	0.0327600
5832.30	77.68	0.0327919
5836.30	77.62	0.0327875
5840.30	77.55	0.0328096
5844.30	77.48	0.0327556
5848.30	77.42	0.0327712
5852.30	77.35	0.0328026
5856.30	77.28	0.0328128
5860.30	77.22	0.0328031
5864.30	77.15	0.0328020
5868.30	77.08	0.0328172
5872.30	77.02	0.0328386
5876.30	76.95	0.0328678
5880.30	76.88	0.0328716
5884.30	76.82	0.0328898
5888.30	76.75	0.0328499
5892.30	76.68	0.0328755
5896.30	76.62	0.0328666
5900.30	76.55	0.0328711
5904.30	76.48	0.0328720
5908.30	76.42	0.0328570
5912.30	76.35	0.0328859
5916.30	76.28	0.0328824
5920.30	76.22	0.0329139
5924.30	76.15	0.0329100
5928.30	76.08	0.0329433
5932.30	76.02	0.0329492
5936.30	75.95	0.0329312
5940.30	75.88	0.0329168
5944.30	75.82	0.0329482
5948.30	75.75	0.0329031
5952.30	75.68	0.0328913
5956.30	75.62	0.0329544
5960.30	75.55	0.0329519
5964.30	75.48	0.0329499
5968.30	75.42	0.0329486
5972.30	75.35	0.0329292
5976.30	75.28	0.0329936
5980.30	75.22	0.0330236
5984.30	75.15	0.0330144
5988.30	75.08	0.0329936
5992.30	75.02	0.0330220
5996.30	74.95	0.0330532
6000.30	74.88	0.0330523
6004.30	74.82	0.0330843
6008.30	74.75	0.0330840
6012.30	74.68	0.0330718
6016.30	74.62	0.0330909
6020.30	74.55	0.0331353
6024.30	74.48	0.0331269
6028.30	74.42	0.0331712
6032.30	74.35	0.0332130
6036.30	74.28	0.0332913
6040.30	74.22	0.0333768
6044.30	74.15	0.0334657
6048.30	74.08	0.0335716
6052.30	74.02	0.0337461
6056.30	73.95	0.0339345
6060.30	73.88	0.0341205
6064.30	73.82	0.0342983
6068.30	73.75	0.0345488
6072.30	73.69	0.0348300
6076.30	73.62	0.0352035
6080.30	73.55	0.0357086
6084.30	73.49	0.0363316
6088.30	73.42	0.0371802
6092.30	73.36	0.0382739
6096.30	73.29	0.0397003
6100.30	73.22	0.0414403
6104.30	73.16	0.0432533
6108.30	73.09	0.0455053
6112.30	73.03	0.0478016
6116.30	72.96	0.0499275
6120.30	72.89	0.0518385
6124.30	72.83	0.0537146
6128.30	72.76	0.0550583
6132.30	72.70	0.0561328
6136.30	72.63	0.0569440
6140.30	72.56	0.0574189
6144.30	72.49	0.0575320
6148.30	72.43	0.0572228
6152.30	72.36	0.0566469
6156.30	72.29	0.0558918
6160.30	72.23	0.0549983
6164.30	72.16	0.0540141
6168.30	72.09	0.0527881
6172.30	72.02	0.0516822
6176.30	71.96	0.0508678
6180.30	71.89	0.0502742
6184.30	71.82	0.0499502
6188.30	71.76	0.0498417
6192.30	71.69	0.0499602
6196.30	71.62	0.0501157
6200.30	71.56	0.0501964
6204.30	71.49	0.0501593
6208.30	71.42	0.0499685
6212.30	71.36	0.0497356
6216.30	71.29	0.0494911
6220.30	71.22	0.0493755
6224.30	71.16	0.0492784
6228.30	71.09	0.0491215
6232.30	71.02	0.0489253
6236.30	70.96	0.0487299
6240.30	70.89	0.0485983
6244.30	70.82	0.0484533
6248.30	70.76	0.0482992
6252.30	70.69	0.0482510
6256.30	70.62	0.0481729
6260.30	70.56	0.0480900
6264.30	70.49	0.0480177
6268.30	70.42	0.0479649
6272.30	70.36	0.0479457
6276.30	70.29	0.0479511
6280.30	70.22	0.0478673
6284.30	70.16	0.0477656
6288.30	70.09	0.0476521
6292.30	70.02	0.0474280
6296.30	69.96	0.0472169
6300.30	69.89	0.0469642
6304.30	69.82	0.0467479
6308.30	69.76	0.0465377
6312.30	69.69	0.0463503
6316.30	69.62	0.0461967
6320.30	69.56	0.0460296
6324.30	69.49	0.0459115
6328.30	69.42	0.0458182
6332.30	69.36	0.0457220
6336.30	69.29	0.0456395
6340.30	69.22	0.0455296
6344.30	69.16	0.0454136
6348.30	69.09	0.0452538
6352.30	69.02	0.0450953
6356.30	68.96	0.0449682
6360.30	68.89	0.0448737
6364.30	68.82	0.0447442
6368.30	68.76	0.0446635
6372.30	68.69	0.0445710
6376.30	68.62	0.0444520
6380.30	68.56	0.0443403
6384.30	68.49	0.0442397
6388.30	68.42	0.0441405
6392.30	68.36	0.0440475
6396.30	68.29	0.0439357
6400.30	68.22	0.0438482
6404.30	68.16	0.0437728
6408.30	68.09	0.0436949
6412.30	68.02	0.0436142
6416.30	67.95	0.0434749
6420.30	67.89	0.0433195
6424.30	67.82	0.0431897
6428.30	67.75	0.0430244
6432.30	67.69	0.0429347
6436.30	67.62	0.0428299
6440.30	67.55	0.0427939
6444.30	67.49	0.0427576
6448.30	67.42	0.0426969
6452.30	67.35	0.0426429
6456.30	67.29	0.0426275
6460.30	67.22	0.0425510
6464.30	67.15	0.0424718
6468.30	67.09	0.0423546
6472.30	67.02	0.0422240
6476.30	66.95	0.0420661
6480.30	66.89	0.0419610
6484.30	66.82	0.0418654
6488.30	66.75	0.0417933
6492.30	66.69	0.0417769
6496.30	66.62	0.0416983
6500.30	66.55	0.0416266
6504.30	66.49	0.0415656
6508.30	66.42	0.0414698
6512.30	66.35	0.0413751
6516.30	66.29	0.0412942
6520.30	66.22	0.0412026
6524.30	66.15	0.0411147
6528.30	66.09	0.0410383
6532.30	66.02	0.0409567
6536.30	65.95	0.0408658
6540.30	65.89	0.0408004
6544.30	65.82	0.0407268
6548.30	65.75	0.0406366
6552.30	65.69	0.0405706
6556.30	65.62	0.0405131
6560.30	65.55	0.0404240
6564.30	65.49	0.0403462
6568.30	65.42	0.0402819
6572.30	65.35	0.0402344
6576.30	65.29	0.0401894
6580.30	65.22	0.0401415
6584.30	65.15	0.0401445
6588.30	65.09	0.0400609
6592.30	65.02	0.0399882
6596.30	64.95	0.0399038
6600.30	64.89	0.0397645
6604.30	64.82	0.0396490
6608.30	64.75	0.0395576
6612.30	64.69	0.0394620
6616.30	64.62	0.0393926
6620.30	64.55	0.0393648
6624.30	64.49	0.0393768
6628.30	64.42	0.0393573
6632.30	64.35	0.0393315
6636.30	64.29	0.0392633
6640.30	64.22	0.0392667
6644.30	64.15	0.0391997
6648.30	64.09	0.0391178
6652.30	64.02	0.0391132
6656.30	63.95	0.0390215
6660.30	63.89	0.0390019
6664.30	63.82	0.0389469
6668.30	63.75	0.0388910
6672.30	63.69	0.0388126
6676.30	63.62	0.0387040
6680.30	63.55	0.0386318
6684.30	63.49	0.0386088
6688.30	63.42	0.0385454
6692.30	63.35	0.0385203
6696.30	63.29	0.0384858
6700.30	63.22	0.0384229
6704.30	63.15	0.0383919
6708.30	63.09	0.0384046
6712.30	63.02	0.0383509
6716.30	62.95	0.0382594
6720.30	62.89	0.0381658
6724.30	62.82	0.0381090
6728.30	62.75	0.0380157
6732.30	62.69	0.0379317
6736.30	62.62	0.0378599
6740.30	62.55	0.0377754
6744.30	62.49	0.0377096
6748.30	62.42	0.0376844
6752.30	62.35	0.0376439
6756.30	62.29	0.0376365
6760.30	62.22	0.0376124
6764.30	62.15	0.0375635
6768.30	62.09	0.0375307
6772.30	62.02	0.0374880
6776.30	61.95	0.0374593
6780.30	61.89	0.0374300
6784.30	61.82	0.0374053
6788.30	61.75	0.0373594
6792.30	61.69	0.0372861
6796.30	61.62	0.0372868
6800.30	61.55	0.0371921
6804.30	61.48	0.0371424
6808.30	61.42	0.0370762
6812.30	61.35	0.0370823
6816.30	61.29	0.0369955
6820.30	61.22	0.0369580
6824.30	61.15	0.0369447
6828.30	61.09	0.0369335
6832.30	61.02	0.0368747
6836.30	60.95	0.0368560
6840.30	60.89	0.0368021
6844.30	60.82	0.0368118
6848.30	60.75	0.0368017
6852.30	60.68	0.0367833
6856.30	60.62	0.0367623
6860.30	60.55	0.0366943
6864.30	60.48	0.0366923
6868.30	60.42	0.0366342
6872.30	60.35	0.0366241
6876.30	60.29	0.0365659
6880.30	60.22	0.0365523
6884.30	60.15	0.0365011
6888.30	60.08	0.0364452
6892.30	60.02	0.0363960
6896.30	59.95	0.0363884
6900.30	59.88	0.0363467
6904.30	59.82	0.0363023
6908.30	59.75	0.0362301
6912.30	59.69	0.0361592
6916.30	59.62	0.0361131
6920.30	59.55	0.0360578
6924.30	59.49	0.0360389
6928.30	59.42	0.0359940
6932.30	59.35	0.0359502
6936.30	59.29	0.0359266
6940.30	59.22	0.0359061
6944.30	59.15	0.0358659
6948.30	59.09	0.0358218
6952.30	59.02	0.0358023
6956.30	58.95	0.0357801
6960.30	58.88	0.0357714
6964.30	58.82	0.0357553
6968.30	58.75	0.0357516
6972.30	58.69	0.0357137
6976.30	58.62	0.0357208
6980.30	58.55	0.0357071
6984.30	58.49	0.0356780
6988.30	58.42	0.0356256
6992.30	58.35	0.0355960
6996.30	58.28	0.0355645
7000.30	58.22	0.0355036
7004.30	58.15	0.0354853
7008.30	58.08	0.0354385
7012.30	58.02	0.0354490
7016.30	57.95	0.0353952
7020.30	57.88	0.0353942
7024.30	57.82	0.0353830
7028.30	57.75	0.0353451
7032.30	57.68	0.0353455
7036.30	57.62	0.0353270
7040.30	57.55	0.0352608
7044.30	57.48	0.0352629
7048.30	57.42	0.0352415
7052.30	57.35	0.0352048
7056.30	57.28	0.0351599
7060.30	57.22	0.0351136
7064.30	57.15	0.0350797
7068.30	57.09	0.0350281
7072.30	57.02	0.0350186
7076.30	56.95	0.0350026
7080.30	56.88	0.0349986
7084.30	56.82	0.0349833
7088.30	56.75	0.0349442
7092.30	56.68	0.0349279
7096.30	56.62	0.0348966
7100.30	56.55	0.0348745
7104.30	56.48	0.0348585
7108.30	56.42	0.0348168
7112.30	56.35	0.0347972
7116.30	56.28	0.0347918
7120.30	56.22	0.0347677
7124.30	56.15	0.0347414
7128.30	56.08	0.0347048
7132.30	56.02	0.0347181
7136.30	55.95	0.0346857
7140.30	55.88	0.0346206
7144.30	55.82	0.0345923
7148.30	55.75	0.0346009
7152.30	55.68	0.0345658
7156.30	55.62	0.0345535
7160.30	55.55	0.0345453
7164.30	55.48	0.0345291
7168.30	55.42	0.0345179
7172.30	55.35	0.0344658
7176.30	55.29	0.0344568
7180.30	55.22	0.0343950
7184.30	55.15	0.0343709
7188.30	55.08	0.0343850
7192.30	55.02	0.0343816
7196.30	54.95	0.0343374
7200.30	54.88	0.0342945
7204.30	54.82	0.0343073
7208.30	54.75	0.0342782
7212.30	54.68	0.0342313
7216.30	54.62	0.0342088
7220.30	54.55	0.0341759
7224.30	54.48	0.0341481
7228.30	54.42	0.0341092
7232.30	54.35	0.0340798
7236.30	54.28	0.0340498
7240.30	54.22	0.0340386
7244.30	54.15	0.0339959
7248.30	54.08	0.0339419
7252.30	54.02	0.0339487
7256.30	53.95	0.0338853
7260.30	53.88	0.0339092
7264.30	53.82	0.0338985
7268.30	53.75	0.0339098
7272.30	53.68	0.0338785
7276.30	53.62	0.0338275
7280.30	53.55	0.0337731
7284.30	53.48	0.0337519
7288.30	53.42	0.0337299
7292.30	53.35	0.0337173
7296.30	53.28	0.0337238
7300.30	53.22	0.0336684
7304.30	53.15	0.0336658
7308.30	53.08	0.0336657
7312.30	53.02	0.0336185
7316.30	52.95	0.0335995
7320.30	52.88	0.0336069
7324.30	52.82	0.0335729
7328.30	52.75	0.0335839
7332.30	52.68	0.0335892
7336.30	52.62	0.0335623
7340.30	52.55	0.0335452
7344.30	52.48	0.0335362
7348.30	52.42	0.0335302
7352.30	52.35	0.0335186
7356.30	52.28	0.0334811
7360.30	52.22	0.0334934
7364.30	52.15	0.0334767
7368.30	52.08	0.0334469
7372.30	52.02	0.0334259
7376.30	51.95	0.0333973
7380.30	51.88	0.0333746
7384.30	51.82	0.0333399
7388.30	51.75	0.0333380
7392.30	51.68	0.0333058
7396.30	51.62	0.0332983
7400.30	51.55	0.0333438
7404.30	51.49	0.0333061
7408.30	51.42	0.0332849
7412.30	51.35	0.0332586
7416.30	51.28	0.0332574
7420.30	51.22	0.0332265
7424.30	51.15	0.0332514
7428.30	51.08	0.0332338
7432.30	51.02	0.0331926
7436.30	50.95	0.0331976
7440.30	50.88	0.0331685
7444.30	50.82	0.0331522
7448.30	50.75	0.0331133
7452.30	50.68	0.0331097
7456.30	50.62	0.0330966
7460.30	50.55	0.0330681
7464.30	50.48	0.0330547
7468.30	50.42	0.0330360
7472.30	50.35	0.0330000
7476.30	50.28	0.0329952
7480.30	50.22	0.0329651
7484.30	50.15	0.0329488
7488.30	50.08	0.0329638
7492.30	50.02	0.0329384
7496.30	49.95	0.0329404
7500.30	49.88	0.0329225
7504.30	49.82	0.0328899
7508.30	49.75	0.0328736
7512.30	49.68	0.0328958
7516.30	49.62	0.0328295
7520.30	49.55	0.0328359
7524.30	49.48	0.0327985
7528.30	49.42	0.0327970
7532.30	49.35	0.0327626
7536.30	49.28	0.0327757
7540.30	49.22	0.0327365
7544.30	49.15	0.0327644
7548.30	49.08	0.0327553
7552.30	49.02	0.0327036
7556.30	48.96	-4.58738e-3
7560.30	49.04	-0.0110519
7564.30	49.63	0.408397
7568.30	50.40	3.53635
7572.30	50.48	3.88084
7576.30	50.56	4.31703
7580.30	49.92	3.62375
7584.30	49.21	1.99064
7588.30	48.80	1.08138
7592.30	48.55	0.590296
7596.30	48.39	0.333101
7600.30	48.27	0.195277
7604.30	48.18	0.121908
7608.30	48.10	0.0842294
7612.30	48.03	0.0636350
7616.30	47.96	0.0531664
7620.30	47.89	0.0475845
7624.30	47.82	0.0444405
7628.30	47.75	0.0427642
7632.30	47.69	0.0416297
7636.30	47.62	0.0406083
7640.30	47.55	0.0396699
7644.30	47.49	0.0388567
7648.30	47.42	0.0380658
7652.30	47.35	0.0374304
7656.30	47.28	0.0368530
7660.30	47.22	0.0362958
7664.30	47.15	0.0357873
7668.30	47.08	0.0353664
7672.30	47.02	0.0350329
7676.30	46.95	0.0347042
7680.30	46.88	0.0344053
7684.30	46.82	0.0341097
7688.30	46.75	0.0338884
7692.30	46.68	0.0336766
7696.30	46.62	0.0334683
7700.30	46.55	0.0333268
7704.30	46.48	0.0331623
7708.30	46.42	0.0330004
7712.30	46.35	0.0328693
7716.30	46.28	0.0328236
7720.30	46.22	0.0326902
7724.30	46.15	0.0326287
7728.30	46.08	0.0325258
7732.30	46.02	0.0323906
7736.30	45.95	0.0322812
7740.30	45.88	0.0321879
7744.30	45.82	0.0320934
7748.30	45.75	0.0319842
7752.30	45.68	0.0318874
7756.30	45.62	0.0317829
7760.30	45.55	0.0316924
7764.30	45.48	0.0316078
7768.30	45.42	0.0315123
7772.30	45.35	0.0314840
7776.30	45.28	0.0314118
7780.30	45.22	0.0313512
7784.30	45.15	0.0312644
7788.30	45.08	0.0311772
7792.30	45.02	0.0311268
7796.30	44.95	0.0310865
7800.30	44.88	0.0310084
7804.30	44.82	0.0309305
7808.30	44.75	0.0308243
7812.30	44.68	0.0307859
7816.30	44.62	0.0307350
7820.30	44.55	0.0307109
7824.30	44.48	0.0306504
7828.30	44.42	0.0306003
7832.30	44.35	0.0305350
7836.30	44.28	0.0304696
7840.30	44.22	0.0304413
7844.30	44.15	0.0303872
7848.30	44.08	0.0303660
7852.30	44.02	0.0303266
7856.30	43.95	0.0302254
7860.30	43.88	0.0301801
7864.30	43.82	0.0301017
7868.30	43.75	0.0300385
7872.30	43.68	0.0299501
7876.30	43.62	0.0299040
7880.30	43.55	0.0298904
7884.30	43.48	0.0298188
7888.30	43.42	0.0298115
7892.30	43.35	0.0297595
7896.30	43.28	0.0297105
7900.30	43.22	0.0296889
7904.30	43.15	0.0296248
7908.30	43.08	0.0295930
7912.30	43.01	0.0295485
7916.30	42.95	0.0294893
7920.30	42.88	0.0294616
7924.30	42.82	0.0294122
7928.30	42.75	0.0293919
7932.30	42.68	0.0293627
7936.30	42.61	0.0293395
7940.30	42.55	0.0292894
7944.30	42.48	0.0292325
7948.30	42.41	0.0292453
7952.30	42.35	0.0291848
7956.30	42.28	0.0291795
7960.30	42.21	0.0291038
7964.30	42.15	0.0290431
7968.30	42.08	0.0290310
7972.30	42.01	0.0289773
7976.30	41.95	0.0289485
7980.30	41.88	0.0289142
7984.30	41.81	0.0288903
7988.30	41.75	0.0288620
7992.30	41.68	0.0287978
7996.30	41.62	0.0287383
8000.30	41.55	0.0287052
8004.30	41.48	0.0286508
8008.30	41.41	0.0286616
8012.30	41.35	0.0286418
8016.30	41.28	0.0286125
8020.30	41.21	0.0285649
8024.30	41.15	0.0285382
8028.30	41.08	0.0284834
8032.30	41.01	0.0284648
8036.30	40.95	0.0284412
8040.30	40.88	0.0283766
8044.30	40.81	0.0283777
8048.30	40.75	0.0283276
8052.30	40.68	0.0283127
8056.30	40.61	0.0282591
8060.30	40.55	0.0282073
8064.30	40.48	0.0281758
8068.30	40.41	0.0281210
8072.30	40.35	0.0281129
8076.30	40.28	0.0280935
8080.30	40.21	0.0280455
8084.30	40.15	0.0280071
8088.30	40.08	0.0279822
8092.30	40.01	0.0279776
8096.30	39.95	0.0279169
8100.30	39.88	0.0278916
8104.30	39.81	0.0278757
8108.30	39.75	0.0278144
8112.30	39.68	0.0278003
8116.30	39.61	0.0277386
8120.30	39.55	0.0277100
8124.30	39.48	0.0276854
8128.30	39.41	0.0277056
8132.30	39.35	0.0276954
8136.30	39.28	0.0276586
8140.30	39.21	0.0276690
8144.30	39.15	0.0276313
8148.30	39.08	0.0276080
8152.30	39.01	0.0275851
8156.30	38.95	0.0275459
8160.30	38.88	0.0274996
8164.30	38.81	0.0274626
8168.30	38.75	0.0274687
8172.30	38.68	0.0274171
8176.30	38.61	0.0274306
8180.30	38.55	0.0273866
8184.30	38.48	0.0273939
8188.30	38.41	0.0274531
8192.30	38.35	0.0274992
8196.30	38.28	0.0275146
8200.30	38.21	0.0274957
8204.30	38.15	0.0274591
8208.30	38.08	0.0274057
8212.30	38.01	0.0273551
8216.30	37.95	0.0272882
8220.30	37.88	0.0272581
8224.30	37.81	0.0272206
8228.30	37.75	0.0271643
8232.30	37.68	0.0271335
8236.30	37.61	0.0271559
8240.30	37.55	0.0271522
8244.30	37.48	0.0271325
8248.30	37.41	0.0271112
8252.30	37.35	0.0270786
8256.30	37.28	0.0270699
8260.30	37.21	0.0270389
8264.30	37.15	0.0269623
8268.30	37.08	0.0269318
8272.30	37.01	0.0268958
8276.30	36.95	0.0268886
8280.30	36.88	0.0268494
8284.30	36.81	0.0268287
8288.30	36.75	0.0267923
8292.30	36.68	0.0268182
8296.30	36.61	0.0268692
8300.30	36.55	0.0268525
8304.30	36.48	0.0268550
8308.30	36.41	0.0268275
8312.30	36.35	0.0268009
8316.30	36.28	0.0267539
8320.30	36.21	0.0267170
8324.30	36.15	0.0266929
8328.30	36.08	0.0266771
8332.30	36.01	0.0266502
8336.30	35.95	0.0266042
8340.30	35.88	0.0265858
8344.30	35.81	0.0265773
8348.30	35.75	0.0265379
8352.30	35.68	0.0265191
8356.30	35.61	0.0264648
8360.30	35.55	0.0264163
8364.30	35.48	0.0264151
8368.30	35.41	0.0263544
8372.30	35.35	0.0263259
8376.30	35.28	0.0263326
8380.30	35.21	0.0262941
8384.30	35.15	0.0262823
8388.30	35.08	0.0262355
8392.30	35.01	0.0262322
8396.30	34.95	0.0262262
8400.30	34.88	0.0262104
8404.30	34.81	0.0262129
8408.30	34.75	0.0262093
8412.30	34.68	0.0262221
8416.30	34.61	0.0262203
8420.30	34.55	0.0262044
8424.30	34.48	0.0261874
8428.30	34.41	0.0261433
8432.30	34.35	0.0261033
8436.30	34.28	0.0260776
8440.30	34.21	0.0260895
8444.30	34.15	0.0261333
8448.30	34.08	0.0261766
8452.30	34.01	0.0262120
8456.30	33.95	0.0261671
8460.30	33.88	0.0261191
8464.30	33.81	0.0260876
8468.30	33.75	0.0260639
8472.30	33.68	0.0260431
8476.30	33.61	0.0260077
8480.30	33.55	0.0260027
8484.30	33.48	0.0260070
8488.30	33.41	0.0259937
8492.30	33.35	0.0259668
8496.30	33.28	0.0259383
8500.30	33.21	0.0259205
8504.30	33.15	0.0258876
8508.30	33.08	0.0258598
8512.30	33.01	0.0258575
8516.30	32.95	0.0258207
8520.30	32.88	0.0258249
8524.30	32.81	0.0258150
8528.30	32.75	0.0257736
8532.30	32.68	0.0257531
8536.30	32.61	0.0257688
8540.30	32.55	0.0257822
8544.30	32.48	0.0257993
8548.30	32.41	0.0257515
8552.30	32.35	0.0257022
8556.30	32.28	0.0256986
8560.30	32.21	0.0256406
8564.30	32.15	0.0256122
8568.30	32.08	0.0256129
8572.30	32.01	0.0255717
8576.30	31.95	0.0255249
8580.30	31.88	0.0255250
8584.30	31.81	0.0255070
8588.30	31.75	0.0254584
8592.30	31.68	0.0254499
8596.30	31.61	0.0254312
8600.30	31.55	0.0254358
8604.30	31.48	0.0253883
8608.30	31.41	0.0254127
8612.30	31.35	0.0254024
8616.30	31.28	0.0254223
8620.30	31.21	0.0254439
8624.30	31.15	0.0254080
8628.30	31.08	0.0253935
8632.30	31.01	0.0254339
8636.30	30.95	0.0253882
8640.30	30.88	0.0253870
8644.30	30.81	0.0253825
8648.30	30.75	0.0253616
8652.30	30.68	0.0253344
8656.30	30.61	0.0253227
8660.30	30.54	0.0253079
8664.30	30.48	0.0252483
8668.30	30.41	0.0252485
8672.30	30.35	0.0252150
8676.30	30.28	0.0252126
8680.30	30.21	0.0251812
8684.30	30.15	0.0251667
8688.30	30.08	0.0251474
8692.30	30.01	0.0251641
8696.30	29.95	0.0251384
8700.30	29.88	0.0251516
8704.30	29.81	0.0251613
8708.30	29.75	0.0251575
8712.30	29.68	0.0251747
8716.30	29.61	0.0251730
8720.30	29.55	0.0251399
8724.30	29.48	0.0251185
8728.30	29.41	0.0251195
8732.30	29.35	0.0251213
8736.30	29.28	0.0251357
8740.30	29.21	0.0251179
8744.30	29.15	0.0250764
8748.30	29.08	0.0250523
8752.30	29.01	0.0250449
8756.30	28.94	0.0250197
8760.30	28.88	0.0249929
8764.30	28.81	0.0249939
8768.30	28.75	0.0249719
8772.30	28.68	0.0249350
8776.30	28.61	0.0249184
8780.30	28.55	0.0249214
8784.30	28.48	0.0248911
8788.30	28.41	0.0248625
8792.30	28.35	0.0248343
8796.30	28.28	0.0247715
8800.30	28.21	0.0247733
8804.30	28.15	0.0247724
8808.30	28.08	0.0247629
8812.30	28.01	0.0247524
8816.30	27.95	0.0247590
8820.30	27.88	0.0248141
8824.30	27.81	0.0248426
8828.30	27.74	0.0248622
8832.30	27.68	0.0248809
8836.30	27.61	0.0248786
8840.30	27.55	0.0248790
8844.30	27.48	0.0248848
8848.30	27.41	0.0248698
8852.30	27.35	0.0248514
8856.30	27.28	0.0248619
8860.30	27.21	0.0247935
8864.30	27.15	0.0247927
8868.30	27.08	0.0248108
8872.30	27.01	0.0247791
8876.30	26.95	0.0247546
8880.30	26.88	0.0247329
8884.30	26.81	0.0247134
8888.30	26.74	0.0246901
8892.30	26.68	0.0247305
8896.30	26.61	0.0247167
8900.30	26.55	0.0247107
8904.30	26.48	0.0246846
8908.30	26.41	0.0246619
8912.30	26.35	0.0246771
8916.30	26.28	0.0246420
8920.30	26.21	0.0246103
8924.30	26.14	0.0246268
8928.30	26.08	0.0246295
8932.30	26.01	0.0245792
8936.30	25.95	0.0246143
8940.30	25.88	0.0245841
8944.30	25.81	0.0245932
8948.30	25.74	0.0245555
8952.30	25.68	0.0245535
8956.30	25.61	0.0245770
8960.30	25.55	0.0245911
8964.30	25.48	0.0246493
8968.30	25.41	0.0247197
8972.30	25.35	0.0247797
8976.30	25.28	0.0248009
8980.30	25.21	0.0247794
8984.30	25.14	0.0247478
8988.30	25.08	0.0247051
8992.30	25.01	0.0247109
8996.30	24.95	0.0246431
9000.30	24.88	0.0246211
9004.30	24.81	0.0246238
9008.30	24.75	0.0246477
9012.30	24.68	0.0246601
9016.30	24.61	0.0246185
9020.30	24.55	0.0245937
9024.30	24.48	0.0245314
9028.30	24.41	0.0244817
9032.30	24.35	0.0244531
9036.30	24.28	0.0244476
9040.30	24.21	0.0244344
9044.30	24.15	0.0244043
9048.30	24.08	0.0243470
9052.30	24.01	0.0243270
9056.30	23.94	0.0243545
9060.30	23.88	0.0243422
9064.30	23.81	0.0242958
9068.30	23.74	0.0242427
9072.30	23.68	0.0242344
9076.30	23.61	0.0242546
9080.30	23.55	0.0242511
9084.30	23.48	0.0242237
9088.30	23.41	0.0242003
9092.30	23.34	0.0241739
9096.30	23.28	0.0241802
9100.30	23.21	0.0241758
9104.30	23.14	0.0241645
9108.30	23.08	0.0241673
9112.30	23.01	0.0241591
9116.30	22.94	0.0241604
9120.30	22.88	0.0241306
9124.30	22.81	0.0240920
9128.30	22.74	0.0240962
9132.30	22.68	0.0240805
9136.30	22.61	0.0240457
9140.30	22.55	0.0241456
9144.30	22.48	0.0242196
9148.30	22.41	0.0242615
9152.30	22.34	0.0242646
9156.30	22.28	0.0242193
9160.30	22.21	0.0241912
9164.30	22.15	0.0241457
9168.30	22.08	0.0241335
9172.30	22.01	0.0241151
9176.30	21.94	0.0240849
9180.30	21.88	0.0240566
9184.30	21.81	0.0240338
9188.30	21.74	0.0240578
9192.30	21.68	0.0240658
9196.30	21.61	0.0240625
9200.30	21.54	0.0240840
9204.30	21.48	0.0240586
9208.30	21.41	0.0240306
9212.30	21.34	0.0240481
9216.30	21.28	0.0240168
9220.30	21.21	0.0239844
9224.30	21.15	0.0239333
9228.30	21.08	0.0238966
9232.30	21.01	0.0238835
9236.30	20.95	0.0238218
9240.30	20.88	0.0237962
9244.30	20.81	0.0238123
9248.30	20.75	0.0238133
9252.30	20.68	0.0238540
9256.30	20.61	0.0238813
9260.30	20.55	0.0238781
9264.30	20.48	0.0238575
9268.30	20.41	0.0238320
9272.30	20.34	0.0238092
9276.30	20.28	0.0237532
9280.30	20.21	0.0237193
9284.30	20.14	0.0236932
9288.30	20.08	0.0237123
9292.30	20.01	0.0236720
9296.30	19.94	0.0236317
9300.30	19.88	0.0235966
9304.30	19.81	0.0236112
9308.30	19.74	0.0236233
9312.30	19.68	0.0236128
9316.30	19.61	0.0235929
9320.30	19.54	0.0235690
9324.30	19.48	0.0235654
9328.30	19.41	0.0235228
9332.30	19.34	0.0234660
9336.30	19.28	0.0234537
9340.30	19.21	0.0234349
9344.30	19.14	0.0234285
9348.30	19.08	0.0234207
9352.30	19.01	0.0234292
9356.30	18.94	0.0234162
9360.30	18.88	0.0234133
9364.30	18.81	0.0234375
9368.30	18.74	0.0234441
9372.30	18.68	0.0234758
9376.30	18.61	0.0235129
9380.30	18.54	0.0235347
9384.30	18.48	0.0235752
9388.30	18.41	0.0235776
9392.30	18.34	0.0235453
9396.30	18.28	0.0235586
9400.30	18.21	0.0235697
9404.30	18.14	0.0235690
9408.30	18.08	0.0235470
9412.30	18.01	0.0235234
9416.30	17.95	0.0235851
9420.30	17.88	0.0236404
9424.30	17.81	0.0237374
9428.30	17.74	0.0237499
9432.30	17.68	0.0237664
9436.30	17.61	0.0237074
9440.30	17.54	0.0236459
9444.30	17.48	0.0235983
9448.30	17.41	0.0235534
9452.30	17.34	0.0235285
9456.30	17.28	0.0235106
9460.30	17.21	0.0235055
9464.30	17.14	0.0234917
9468.30	17.08	0.0235245
9472.30	17.01	0.0234792
9476.30	16.94	0.0234849
9480.30	16.88	0.0234962
9484.30	16.81	0.0234743
9488.30	16.74	0.0234808
9492.30	16.68	0.0234599
9496.30	16.61	0.0234510
9500.30	16.54	0.0234326
9504.30	16.48	0.0234139
9508.30	16.41	0.0233950
9512.30	16.34	0.0233841
9516.30	16.28	0.0233622
9520.30	16.21	0.0233336
9524.30	16.14	0.0233014
9528.30	16.08	0.0232819
9532.30	16.01	0.0233052
9536.30	15.95	0.0232432
9540.30	15.88	0.0232285
9544.30	15.81	0.0232248
9548.30	15.74	0.0231721
9552.30	15.68	0.0231426
9556.30	15.61	0.0231229
9560.30	15.54	0.0230930
9564.30	15.48	0.0231109
9568.30	15.41	0.0231110
9572.30	15.34	0.0230710
9576.30	15.28	0.0230391
9580.30	15.21	0.0230298
9584.30	15.14	0.0230294
9588.30	15.08	0.0230319
9592.30	15.01	0.0230372
9596.30	14.94	0.0230438
9600.30	14.88	0.0230602
9604.30	14.81	0.0230224
9608.30	14.75	0.0229899
9612.30	14.68	0.0229893
9616.30	14.61	0.0230450
9620.30	14.55	0.0230393
9624.30	14.48	0.0230151
9628.30	14.41	0.0230299
9632.30	14.34	0.0230306
9636.30	14.28	0.0230346
9640.30	14.21	0.0230815
9644.30	14.14	0.0230351
9648.30	14.08	0.0229877
9652.30	14.01	0.0229945
9656.30	13.94	0.0230236
9660.30	13.88	0.0229572
9664.30	13.81	0.0229538
9668.30	13.74	0.0229470
9672.30	13.68	0.0229400
9676.30	13.61	0.0229295
9680.30	13.54	0.0229077
9684.30	13.48	0.0228788
9688.30	13.41	0.0228237
9692.30	13.34	0.0228300
9696.30	13.28	0.0227791
9700.30	13.21	0.0227385
9704.30	13.14	0.0227068
9708.30	13.08	0.0226384
9712.30	13.01	0.0225747
9716.30	12.94	0.0224882
9720.30	12.88	0.0224522
9724.30	12.81	0.0224597
9728.30	12.74	0.0224539
9732.30	12.68	0.0224300
9736.30	12.61	0.0223971
9740.30	12.54	0.0223702
9744.30	12.48	0.0223605
9748.30	12.41	0.0223462
9752.30	12.34	0.0223217
9756.30	12.28	0.0223484
9760.30	12.21	0.0223400
9764.30	12.14	0.0223289
9768.30	12.08	0.0223266
9772.30	12.01	0.0223459
9776.30	11.94	0.0223544
9780.30	11.88	0.0223174
9784.30	11.81	0.0223084
9788.30	11.74	0.0222869
9792.30	11.68	0.0222695
9796.30	11.61	0.0222383
9800.30	11.54	0.0222488
9804.30	11.48	0.0222341
9808.30	11.41	0.0222093
9812.30	11.34	0.0221982
9816.30	11.28	0.0221731
9820.30	11.21	0.0221674
9824.30	11.14	0.0222052
9828.30	11.08	0.0221713
9832.30	11.01	0.0221890
9836.30	10.94	0.0221557
9840.30	10.88	0.0221295
9844.30	10.81	0.0221191
9848.30	10.74	0.0220691
9852.30	10.68	0.0220653
9856.30	10.61	0.0220281
9860.30	10.54	0.0220295
9864.30	10.48	0.0220101
9868.30	10.41	0.0219955
9872.30	10.34	0.0219871
9876.30	10.28	0.0218758
9880.30	10.21	0.0223025
9884.30	10.14	0.0223748
9888.30	10.08	0.0223547
9892.30	10.01	0.0222790
9896.30	9.94	0.0221503
9900.30	9.88	0.0221032
9904.30	9.81	0.0220561
9908.30	9.74	0.0219831
9912.30	9.68	0.0218895
9916.30	9.61	0.0218976
9920.30	9.54	0.0218715
9924.30	9.48	0.0218443
9928.30	9.41	0.0218402
9932.30	9.34	0.0218393
9936.30	9.28	0.0218255
9940.30	9.21	0.0218174
9944.30	9.14	0.0217749
9948.30	9.07	0.0217591
9952.30	9.01	0.0217448
9956.30	8.94	0.0217510
9960.30	8.88	0.0217375
9964.30	8.81	0.0217160
9968.30	8.74	0.0217318
9972.30	8.68	0.0217071
9976.30	8.61	0.0216299
9980.30	8.54	0.0216898
9984.30	8.47	0.0216740
9988.30	8.41	0.0216532
9992.30	8.34	0.0216384
9996.30	8.28	0.0216062
10000.3	8.21	0.0215852
10004.3	8.14	0.0215559
10008.3	8.08	0.0215608
10012.3	8.01	0.0215064
10016.3	7.94	0.0215164
10020.3	7.88	0.0215336
10024.3	7.81	0.0215199
10028.3	7.74	0.0215029
10032.3	7.68	0.0215314
10036.3	7.61	0.0215328
10040.3	7.54	0.0215108
10044.3	7.48	0.0215013
10048.3	7.41	0.0215003
10052.3	7.34	0.0214568
10056.3	7.28	0.0214855
10060.3	7.21	0.0214602
10064.3	7.14	0.0214461
10068.3	7.08	0.0214417
10072.3	7.01	0.0214392
10076.3	6.94	0.0213935
10080.3	6.88	0.0213864
10084.3	6.81	0.0213604
10088.3	6.74	0.0213438
10092.3	6.68	0.0213498
10096.3	6.61	0.0213289
10100.3	6.54	0.0212824
10104.3	6.48	0.0212941
10108.3	6.41	0.0212835
10112.3	6.34	0.0213157
10116.3	6.28	0.0212654
10120.3	6.21	0.0212680
10124.3	6.14	0.0212580
10128.3	6.08	0.0212799
10132.3	6.01	0.0212714
10136.3	5.94	0.0212443
10140.3	5.88	0.0212109
10144.3	5.81	0.0211991
10148.3	5.74	0.0212434
10152.3	5.68	0.0212254
10156.3	5.61	0.0211996
10160.3	5.54	0.0212137
10164.3	5.47	0.0211585
10168.3	5.41	0.0211706
10172.3	5.34	0.0211486
10176.3	5.28	0.0211330
10180.3	5.21	0.0211181
10184.3	5.14	0.0211402
10188.3	5.08	0.0215744
10192.3	5.01	0.0215732
10196.3	4.94	0.0215036
10200.3	4.87	0.0214446
10204.3	4.81	0.0213516
10208.3	4.74	0.0212784
10212.3	4.68	0.0212071
10216.3	4.61	0.0211693
10220.3	4.54	0.0211216
10224.3	4.47	0.0211264
10228.3	4.41	0.0210907
10232.3	4.34	0.0210672
10236.3	4.28	0.0210521
10240.3	4.21	0.0210765
10244.3	4.14	0.0210662
10248.3	4.08	0.0210556
10252.3	4.01	0.0210256
10256.3	3.94	0.0210410
10260.3	3.88	0.0210155
10264.3	3.81	0.0209782
10268.3	3.74	0.0209747
10272.3	3.67	0.0209724
10276.3	3.61	0.0209615
10280.3	3.54	0.0209572
10284.3	3.48	0.0209281
10288.3	3.41	0.0209207
10292.3	3.34	0.0209087
10296.3	3.28	0.0209408
10300.3	3.21	0.0209377
10304.3	3.14	0.0209204
10308.3	3.08	0.0209136
10312.3	3.01	0.0209218
10316.3	2.94	0.0208794
10320.3	2.88	0.0208570
10324.3	2.81	0.0208567
10328.3	2.74	0.0208286
10332.3	2.68	0.0208191
10336.3	2.61	0.0208446
10340.3	2.54	0.0208105
10344.3	2.48	0.0208169
10348.3	2.41	0.0208515
10352.3	2.34	0.0208484
10356.3	2.28	0.0208555
10360.3	2.21	0.0208372
10364.3	2.14	0.0208427
10368.3	2.08	0.0208214
10372.3	2.01	0.0208403
10376.3	1.94	0.0208622
10380.3	1.88	0.0208456
10384.3	1.81	0.0208390
10388.3	1.74	0.0208505
10392.3	1.67	0.0208489
10396.3	1.61	0.0208579
10400.3	1.54	0.0208298
10404.3	1.48	0.0208431
10408.3	1.41	0.0208194
10412.3	1.34	0.0208138
10416.3	1.27	0.0208226
10420.3	1.21	0.0208327
10424.3	1.14	0.0208188
10428.3	1.07	0.0208151
10432.3	1.01	0.0207804
10436.3	0.94	0.0207518
10440.3	0.88	0.0207386
10444.3	0.81	0.0207367
10448.3	0.74	0.0207240
10452.3	0.67	0.0207330
10456.3	0.61	0.0206998
10460.3	0.54	0.0207175
10464.3	0.47	0.0207079
10468.3	0.41	0.0207538
10472.3	0.34	0.0207563
10476.3	0.28	0.0207401
10480.3	0.21	0.0207343
10484.3	0.14	0.0207020
10488.3	0.08	0.0207305
10492.3	0.01	0.0207122
10496.3	-0.06	0.0207354
10500.2	-0.12	0.0207563