File: Differential scanning calorimetry/12OCB Squalene/12OCB SqE wt fraction 135.txt
Filename	Sq12OCB135T150
Instrument name	DSC2A-00101 (192.168.10.4)
Operator	Yuma
rundate	2/8/2021
Sample name	Sq12OCB135T150
proceduresegments	Jump 100.00 °C; Isothermal 10.0 min; Jump 0.00 °C; Isothermal 5.0 min; Mark End of Cycle ; Ramp 5.00 °C/min to 100.00 °C; Mark End of Cycle ; Ramp 5.00 °C/min to 0.00 °C; Mark End of Cycle ; Ramp 5.00 °C/min to 100.00 °C; Mark End of Cycle ; Ramp 1.00 °C/min to 0.00 °C; Mark End of Cycle ; Ramp 5.00 °C/min to 100.00 °C; Mark End of Cycle ; Ramp 10.00 °C/min to 0.00 °C; Mark End of Cycle ; Ramp 10.00 °C/min to 100.00 °C; Mark End of Cycle ; Jump 0.00 °C; Mark End of Cycle
[step]
Ramp 1.00 °C/min to 0.00 °C
Time	Temperature	Heat Flow (Normalized)
s	°C	W/g
4500.30	99.01	-0.171560
4504.30	99.32	-0.198537
4508.30	99.50	-0.245646
4512.30	99.55	-0.147821
4516.30	99.54	-0.0711087
4520.30	99.51	-0.0246545
4524.30	99.46	2.50592e-3
4528.30	99.40	0.0160156
4532.30	99.33	0.0239158
4536.30	99.27	0.0275193
4540.30	99.20	0.0294428
4544.30	99.14	0.0307282
4548.30	99.07	0.0317192
4552.30	99.01	0.0325129
4556.30	98.94	0.0332401
4560.30	98.87	0.0337435
4564.30	98.81	0.0340822
4568.30	98.74	0.0344149
4572.30	98.67	0.0346638
4576.30	98.61	0.0348233
4580.30	98.54	0.0349037
4584.30	98.47	0.0349301
4588.30	98.41	0.0350127
4592.30	98.34	0.0350378
4596.30	98.28	0.0350696
4600.30	98.21	0.0350736
4604.30	98.14	0.0350971
4608.30	98.07	0.0351304
4612.30	98.01	0.0351476
4616.30	97.94	0.0351399
4620.30	97.88	0.0351232
4624.30	97.81	0.0350538
4628.30	97.74	0.0350607
4632.30	97.67	0.0349775
4636.30	97.61	0.0349127
4640.30	97.54	0.0348352
4644.30	97.48	0.0347810
4648.30	97.41	0.0348029
4652.30	97.34	0.0347774
4656.30	97.28	0.0347736
4660.30	97.21	0.0347544
4664.30	97.14	0.0347459
4668.30	97.08	0.0347099
4672.30	97.01	0.0347071
4676.30	96.94	0.0346521
4680.30	96.88	0.0346388
4684.30	96.81	0.0346363
4688.30	96.74	0.0346285
4692.30	96.68	0.0346043
4696.30	96.61	0.0345767
4700.30	96.54	0.0345979
4704.30	96.48	0.0345772
4708.30	96.41	0.0345458
4712.30	96.34	0.0345379
4716.30	96.28	0.0345677
4720.30	96.21	0.0345734
4724.30	96.14	0.0345590
4728.30	96.08	0.0345153
4732.30	96.01	0.0344609
4736.30	95.94	0.0344248
4740.30	95.88	0.0343525
4744.30	95.81	0.0343511
4748.30	95.74	0.0343685
4752.30	95.68	0.0343397
4756.30	95.61	0.0342514
4760.30	95.54	0.0342201
4764.30	95.48	0.0341921
4768.30	95.41	0.0342434
4772.30	95.34	0.0342500
4776.30	95.28	0.0342485
4780.30	95.21	0.0342381
4784.30	95.14	0.0341941
4788.30	95.08	0.0341359
4792.30	95.01	0.0341258
4796.30	94.94	0.0341721
4800.30	94.88	0.0341449
4804.30	94.81	0.0341156
4808.30	94.74	0.0341040
4812.30	94.68	0.0340753
4816.30	94.61	0.0340555
4820.30	94.54	0.0340497
4824.30	94.48	0.0340163
4828.30	94.41	0.0339814
4832.30	94.34	0.0339840
4836.30	94.28	0.0340246
4840.30	94.21	0.0339970
4844.30	94.14	0.0340159
4848.30	94.08	0.0339738
4852.30	94.01	0.0339250
4856.30	93.94	0.0338940
4860.30	93.88	0.0338785
4864.30	93.81	0.0339154
4868.30	93.74	0.0339281
4872.30	93.68	0.0338926
4876.30	93.61	0.0338608
4880.30	93.54	0.0337888
4884.30	93.48	0.0337489
4888.30	93.41	0.0337330
4892.30	93.34	0.0337372
4896.30	93.28	0.0337810
4900.30	93.21	0.0337951
4904.30	93.14	0.0337707
4908.30	93.08	0.0337426
4912.30	93.01	0.0338112
4916.30	92.94	0.0338487
4920.30	92.88	0.0338170
4924.30	92.81	0.0337971
4928.30	92.74	0.0338240
4932.30	92.68	0.0338341
4936.30	92.61	0.0337796
4940.30	92.54	0.0337247
4944.30	92.48	0.0337227
4948.30	92.41	0.0337483
4952.30	92.34	0.0337605
4956.30	92.28	0.0336924
4960.30	92.21	0.0336706
4964.30	92.14	0.0336234
4968.30	92.08	0.0335872
4972.30	92.01	0.0335863
4976.30	91.94	0.0336232
4980.30	91.88	0.0336121
4984.30	91.81	0.0336215
4988.30	91.74	0.0336236
4992.30	91.68	0.0335971
4996.30	91.61	0.0335593
5000.30	91.54	0.0335487
5004.30	91.48	0.0335592
5008.30	91.41	0.0336498
5012.30	91.34	0.0336559
5016.30	91.28	0.0336014
5020.30	91.21	0.0335370
5024.30	91.14	0.0334862
5028.30	91.08	0.0334334
5032.30	91.01	0.0334060
5036.30	90.94	0.0333984
5040.30	90.88	0.0333430
5044.30	90.81	0.0333384
5048.30	90.74	0.0333347
5052.30	90.68	0.0333321
5056.30	90.61	0.0333477
5060.30	90.54	0.0333547
5064.30	90.48	0.0333501
5068.30	90.41	0.0333531
5072.30	90.34	0.0333486
5076.30	90.28	0.0333381
5080.30	90.21	0.0333412
5084.30	90.14	0.0333250
5088.30	90.08	0.0333361
5092.30	90.01	0.0333404
5096.30	89.95	0.0332924
5100.30	89.88	0.0332850
5104.30	89.81	0.0332215
5108.30	89.75	0.0332059
5112.30	89.68	0.0332434
5116.30	89.61	0.0332405
5120.30	89.55	0.0332949
5124.30	89.48	0.0333083
5128.30	89.41	0.0333277
5132.30	89.34	0.0333897
5136.30	89.28	0.0333983
5140.30	89.21	0.0333538
5144.30	89.14	0.0333499
5148.30	89.08	0.0333424
5152.30	89.01	0.0332961
5156.30	88.94	0.0332664
5160.30	88.88	0.0332337
5164.30	88.81	0.0331720
5168.30	88.75	0.0331236
5172.30	88.68	0.0330934
5176.30	88.61	0.0331131
5180.30	88.55	0.0331663
5184.30	88.48	0.0331562
5188.30	88.41	0.0332038
5192.30	88.34	0.0332641
5196.30	88.28	0.0333274
5200.30	88.21	0.0333661
5204.30	88.14	0.0333574
5208.30	88.08	0.0333107
5212.30	88.01	0.0332439
5216.30	87.94	0.0332690
5220.30	87.88	0.0332303
5224.30	87.81	0.0331602
5228.30	87.75	0.0331043
5232.30	87.68	0.0330497
5236.30	87.61	0.0330546
5240.30	87.54	0.0330926
5244.30	87.48	0.0331695
5248.30	87.41	0.0332443
5252.30	87.35	0.0332269
5256.30	87.28	0.0331667
5260.30	87.21	0.0331530
5264.30	87.14	0.0331544
5268.30	87.08	0.0331947
5272.30	87.01	0.0332219
5276.30	86.94	0.0332350
5280.30	86.88	0.0331834
5284.30	86.81	0.0331274
5288.30	86.74	0.0331250
5292.30	86.68	0.0331821
5296.30	86.61	0.0332053
5300.30	86.54	0.0331903
5304.30	86.48	0.0331195
5308.30	86.41	0.0331292
5312.30	86.35	0.0331123
5316.30	86.28	0.0331230
5320.30	86.21	0.0331193
5324.30	86.14	0.0330835
5328.30	86.08	0.0331423
5332.30	86.01	0.0331929
5336.30	85.95	0.0331922
5340.30	85.88	0.0331874
5344.30	85.81	0.0331736
5348.30	85.74	0.0331485
5352.30	85.68	0.0332241
5356.30	85.61	0.0332148
5360.30	85.54	0.0331829
5364.30	85.48	0.0330847
5368.30	85.41	0.0330774
5372.30	85.35	0.0330472
5376.30	85.28	0.0330220
5380.30	85.21	0.0330426
5384.30	85.15	0.0330777
5388.30	85.08	0.0331003
5392.30	85.01	0.0331151
5396.30	84.94	0.0331624
5400.30	84.88	0.0331213
5404.30	84.81	0.0331441
5408.30	84.74	0.0332059
5412.30	84.68	0.0332303
5416.30	84.61	0.0332076
5420.30	84.54	0.0331890
5424.30	84.48	0.0331767
5428.30	84.41	0.0331400
5432.30	84.34	0.0331368
5436.30	84.28	0.0331642
5440.30	84.21	0.0331443
5444.30	84.15	0.0331412
5448.30	84.08	0.0331280
5452.30	84.01	0.0330907
5456.30	83.95	0.0331409
5460.30	83.88	0.0331789
5464.30	83.81	0.0332008
5468.30	83.74	0.0331591
5472.30	83.68	0.0332117
5476.30	83.61	0.0332356
5480.30	83.54	0.0331985
5484.30	83.48	0.0331978
5488.30	83.41	0.0332057
5492.30	83.34	0.0331812
5496.30	83.28	0.0331320
5500.30	83.21	0.0331334
5504.30	83.15	0.0331152
5508.30	83.08	0.0331190
5512.30	83.01	0.0330930
5516.30	82.95	0.0331044
5520.30	82.88	0.0330760
5524.30	82.81	0.0331266
5528.30	82.75	0.0331513
5532.30	82.68	0.0331447
5536.30	82.61	0.0331427
5540.30	82.54	0.0331226
5544.30	82.48	0.0331384
5548.30	82.41	0.0331492
5552.30	82.34	0.0332007
5556.30	82.28	0.0331711
5560.30	82.21	0.0331823
5564.30	82.14	0.0331659
5568.30	82.08	0.0331515
5572.30	82.01	0.0331369
5576.30	81.95	0.0331081
5580.30	81.88	0.0330614
5584.30	81.81	0.0330671
5588.30	81.74	0.0331209
5592.30	81.68	0.0331731
5596.30	81.61	0.0332182
5600.30	81.54	0.0332363
5604.30	81.48	0.0332058
5608.30	81.41	0.0331390
5612.30	81.35	0.0331150
5616.30	81.28	0.0331002
5620.30	81.21	0.0331389
5624.30	81.15	0.0332235
5628.30	81.08	0.0332659
5632.30	81.01	0.0332629
5636.30	80.95	0.0332228
5640.30	80.88	0.0331998
5644.30	80.81	0.0332303
5648.30	80.75	0.0332153
5652.30	80.68	0.0332110
5656.30	80.61	0.0331526
5660.30	80.55	0.0332056
5664.30	80.48	0.0332285
5668.30	80.41	0.0332835
5672.30	80.35	0.0332990
5676.30	80.28	0.0332484
5680.30	80.21	0.0332359
5684.30	80.14	0.0332852
5688.30	80.08	0.0332484
5692.30	80.01	0.0332215
5696.30	79.95	0.0332230
5700.30	79.88	0.0332703
5704.30	79.81	0.0332810
5708.30	79.75	0.0332768
5712.30	79.68	0.0332744
5716.30	79.61	0.0332588
5720.30	79.55	0.0332626
5724.30	79.48	0.0332419
5728.30	79.41	0.0332935
5732.30	79.34	0.0333994
5736.30	79.28	0.0334235
5740.30	79.21	0.0334081
5744.30	79.15	0.0333862
5748.30	79.08	0.0333635
5752.30	79.01	0.0333350
5756.30	78.95	0.0333448
5760.30	78.88	0.0333446
5764.30	78.81	0.0333587
5768.30	78.74	0.0333951
5772.30	78.68	0.0334597
5776.30	78.61	0.0334473
5780.30	78.55	0.0334599
5784.30	78.48	0.0334613
5788.30	78.41	0.0335464
5792.30	78.35	0.0335908
5796.30	78.28	0.0335552
5800.30	78.21	0.0335515
5804.30	78.15	0.0336133
5808.30	78.08	0.0336078
5812.30	78.01	0.0336252
5816.30	77.95	0.0336425
5820.30	77.88	0.0336499
5824.30	77.81	0.0336671
5828.30	77.75	0.0336749
5832.30	77.68	0.0337020
5836.30	77.61	0.0337360
5840.30	77.54	0.0337932
5844.30	77.48	0.0337899
5848.30	77.41	0.0337970
5852.30	77.34	0.0338189
5856.30	77.28	0.0338260
5860.30	77.21	0.0338229
5864.30	77.15	0.0338475
5868.30	77.08	0.0338315
5872.30	77.01	0.0338184
5876.30	76.94	0.0338414
5880.30	76.88	0.0338606
5884.30	76.81	0.0338924
5888.30	76.75	0.0339052
5892.30	76.68	0.0339184
5896.30	76.61	0.0339843
5900.30	76.55	0.0341414
5904.30	76.48	0.0344574
5908.30	76.41	0.0349610
5912.30	76.35	0.0354558
5916.30	76.28	0.0360546
5920.30	76.21	0.0366408
5924.30	76.15	0.0372866
5928.30	76.08	0.0381897
5932.30	76.02	0.0396414
5936.30	75.95	0.0437803
5940.30	75.89	0.0514288
5944.30	75.82	0.0591208
5948.30	75.76	0.0651501
5952.30	75.69	0.0682851
5956.30	75.63	0.0699252
5960.30	75.56	0.0709981
5964.30	75.49	0.0714656
5968.30	75.42	0.0711994
5972.30	75.36	0.0702302
5976.30	75.29	0.0690959
5980.30	75.22	0.0678074
5984.30	75.15	0.0664770
5988.30	75.09	0.0651977
5992.30	75.02	0.0640169
5996.30	74.95	0.0628969
6000.30	74.89	0.0618465
6004.30	74.82	0.0609485
6008.30	74.75	0.0601238
6012.30	74.69	0.0593938
6016.30	74.62	0.0586974
6020.30	74.55	0.0581492
6024.30	74.48	0.0575702
6028.30	74.42	0.0570271
6032.30	74.35	0.0565452
6036.30	74.29	0.0561141
6040.30	74.22	0.0556696
6044.30	74.15	0.0553019
6048.30	74.08	0.0549220
6052.30	74.02	0.0545408
6056.30	73.95	0.0541837
6060.30	73.89	0.0538736
6064.30	73.82	0.0536735
6068.30	73.75	0.0534566
6072.30	73.69	0.0532263
6076.30	73.62	0.0529923
6080.30	73.55	0.0527016
6084.30	73.48	0.0524325
6088.30	73.42	0.0522124
6092.30	73.35	0.0519717
6096.30	73.28	0.0516875
6100.30	73.22	0.0512993
6104.30	73.15	0.0508585
6108.30	73.08	0.0503801
6112.30	73.02	0.0500921
6116.30	72.95	0.0498233
6120.30	72.88	0.0496490
6124.30	72.82	0.0495266
6128.30	72.75	0.0494264
6132.30	72.68	0.0493316
6136.30	72.62	0.0492259
6140.30	72.55	0.0491573
6144.30	72.48	0.0488983
6148.30	72.42	0.0486448
6152.30	72.35	0.0484076
6156.30	72.28	0.0482478
6160.30	72.22	0.0481262
6164.30	72.15	0.0480153
6168.30	72.08	0.0479132
6172.30	72.02	0.0477417
6176.30	71.95	0.0476206
6180.30	71.88	0.0474869
6184.30	71.82	0.0473709
6188.30	71.75	0.0472832
6192.30	71.68	0.0471627
6196.30	71.62	0.0470719
6200.30	71.55	0.0469063
6204.30	71.48	0.0468505
6208.30	71.41	0.0467233
6212.30	71.35	0.0465550
6216.30	71.28	0.0463221
6220.30	71.22	0.0460071
6224.30	71.15	0.0457941
6228.30	71.08	0.0456278
6232.30	71.02	0.0454527
6236.30	70.95	0.0453567
6240.30	70.88	0.0452693
6244.30	70.82	0.0452120
6248.30	70.75	0.0451333
6252.30	70.68	0.0450663
6256.30	70.62	0.0449626
6260.30	70.55	0.0448379
6264.30	70.48	0.0447173
6268.30	70.42	0.0445956
6272.30	70.35	0.0444928
6276.30	70.28	0.0444274
6280.30	70.22	0.0443707
6284.30	70.15	0.0443261
6288.30	70.08	0.0443019
6292.30	70.02	0.0442008
6296.30	69.95	0.0440997
6300.30	69.88	0.0440036
6304.30	69.82	0.0439094
6308.30	69.75	0.0438369
6312.30	69.68	0.0437408
6316.30	69.61	0.0436630
6320.30	69.55	0.0436071
6324.30	69.48	0.0434950
6328.30	69.41	0.0433381
6332.30	69.35	0.0432033
6336.30	69.28	0.0430716
6340.30	69.21	0.0429118
6344.30	69.15	0.0428038
6348.30	69.08	0.0426867
6352.30	69.02	0.0426085
6356.30	68.95	0.0425261
6360.30	68.88	0.0424075
6364.30	68.82	0.0423100
6368.30	68.75	0.0422645
6372.30	68.68	0.0421191
6376.30	68.61	0.0420629
6380.30	68.55	0.0419190
6384.30	68.48	0.0418184
6388.30	68.42	0.0416962
6392.30	68.35	0.0415362
6396.30	68.28	0.0414474
6400.30	68.22	0.0413870
6404.30	68.15	0.0413224
6408.30	68.08	0.0412582
6412.30	68.01	0.0412111
6416.30	67.95	0.0411252
6420.30	67.88	0.0410651
6424.30	67.81	0.0410319
6428.30	67.75	0.0409680
6432.30	67.68	0.0409213
6436.30	67.62	0.0408597
6440.30	67.55	0.0407887
6444.30	67.48	0.0407162
6448.30	67.41	0.0405958
6452.30	67.35	0.0404589
6456.30	67.28	0.0403658
6460.30	67.21	0.0403078
6464.30	67.15	0.0402392
6468.30	67.08	0.0401928
6472.30	67.01	0.0401244
6476.30	66.95	0.0400303
6480.30	66.88	0.0399770
6484.30	66.81	0.0398781
6488.30	66.75	0.0398138
6492.30	66.68	0.0397077
6496.30	66.61	0.0396393
6500.30	66.55	0.0395668
6504.30	66.48	0.0394968
6508.30	66.41	0.0394377
6512.30	66.35	0.0393922
6516.30	66.28	0.0393649
6520.30	66.21	0.0392889
6524.30	66.15	0.0391925
6528.30	66.08	0.0390830
6532.30	66.01	0.0389719
6536.30	65.95	0.0389075
6540.30	65.88	0.0388297
6544.30	65.81	0.0387911
6548.30	65.75	0.0387639
6552.30	65.68	0.0386936
6556.30	65.61	0.0386531
6560.30	65.55	0.0385503
6564.30	65.48	0.0385189
6568.30	65.41	0.0384611
6572.30	65.35	0.0383707
6576.30	65.28	0.0383274
6580.30	65.21	0.0383150
6584.30	65.15	0.0382012
6588.30	65.08	0.0381277
6592.30	65.01	0.0380416
6596.30	64.95	0.0379913
6600.30	64.88	0.0379501
6604.30	64.81	0.0378718
6608.30	64.75	0.0378326
6612.30	64.68	0.0378089
6616.30	64.61	0.0378225
6620.30	64.55	0.0377775
6624.30	64.48	0.0377492
6628.30	64.41	0.0377019
6632.30	64.35	0.0376366
6636.30	64.28	0.0375657
6640.30	64.21	0.0375308
6644.30	64.15	0.0374369
6648.30	64.08	0.0374175
6652.30	64.01	0.0373679
6656.30	63.95	0.0373696
6660.30	63.88	0.0373027
6664.30	63.81	0.0372439
6668.30	63.75	0.0372091
6672.30	63.68	0.0371153
6676.30	63.61	0.0370720
6680.30	63.55	0.0370948
6684.30	63.48	0.0370893
6688.30	63.41	0.0370537
6692.30	63.35	0.0369939
6696.30	63.28	0.0369428
6700.30	63.21	0.0369112
6704.30	63.15	0.0368353
6708.30	63.08	0.0367745
6712.30	63.01	0.0366263
6716.30	62.95	0.0365284
6720.30	62.88	0.0364896
6724.30	62.81	0.0365020
6728.30	62.75	0.0364963
6732.30	62.68	0.0364638
6736.30	62.61	0.0364418
6740.30	62.55	0.0363875
6744.30	62.48	0.0363176
6748.30	62.41	0.0363221
6752.30	62.35	0.0362603
6756.30	62.28	0.0362321
6760.30	62.21	0.0361979
6764.30	62.15	0.0361941
6768.30	62.08	0.0361515
6772.30	62.01	0.0361535
6776.30	61.95	0.0361633
6780.30	61.88	0.0360718
6784.30	61.81	0.0359537
6788.30	61.75	0.0358888
6792.30	61.68	0.0358910
6796.30	61.61	0.0358415
6800.30	61.55	0.0358196
6804.30	61.48	0.0358241
6808.30	61.41	0.0357974
6812.30	61.35	0.0357417
6816.30	61.28	0.0357025
6820.30	61.21	0.0357390
6824.30	61.15	0.0357287
6828.30	61.08	0.0357120
6832.30	61.01	0.0356751
6836.30	60.94	0.0356922
6840.30	60.88	0.0357087
6844.30	60.81	0.0356212
6848.30	60.75	0.0355178
6852.30	60.68	0.0354369
6856.30	60.61	0.0353800
6860.30	60.55	0.0353207
6864.30	60.48	0.0353060
6868.30	60.41	0.0352409
6872.30	60.35	0.0351543
6876.30	60.28	0.0351319
6880.30	60.21	0.0351202
6884.30	60.15	0.0350980
6888.30	60.08	0.0351083
6892.30	60.01	0.0350728
6896.30	59.95	0.0350475
6900.30	59.88	0.0350344
6904.30	59.81	0.0349808
6908.30	59.74	0.0349711
6912.30	59.68	0.0349663
6916.30	59.61	0.0349470
6920.30	59.55	0.0349324
6924.30	59.48	0.0347778
6928.30	59.41	0.0346837
6932.30	59.35	0.0346564
6936.30	59.28	0.0346157
6940.30	59.21	0.0346488
6944.30	59.15	0.0346175
6948.30	59.08	0.0346123
6952.30	59.01	0.0346190
6956.30	58.95	0.0346522
6960.30	58.88	0.0346464
6964.30	58.81	0.0346824
6968.30	58.75	0.0347038
6972.30	58.68	0.0347039
6976.30	58.61	0.0347344
6980.30	58.55	0.0347246
6984.30	58.48	0.0346262
6988.30	58.41	0.0345325
6992.30	58.35	0.0344657
6996.30	58.28	0.0344324
7000.30	58.21	0.0344620
7004.30	58.15	0.0344749
7008.30	58.08	0.0344509
7012.30	58.01	0.0344021
7016.30	57.94	0.0343790
7020.30	57.88	0.0344040
7024.30	57.81	0.0343514
7028.30	57.75	0.0343179
7032.30	57.68	0.0342817
7036.30	57.61	0.0342076
7040.30	57.55	0.0341748
7044.30	57.48	0.0341098
7048.30	57.41	0.0340866
7052.30	57.35	0.0340475
7056.30	57.28	0.0339877
7060.30	57.21	0.0339124
7064.30	57.15	0.0339082
7068.30	57.08	0.0339251
7072.30	57.01	0.0338993
7076.30	56.95	0.0338810
7080.30	56.88	0.0338729
7084.30	56.81	0.0339023
7088.30	56.75	0.0339215
7092.30	56.68	0.0339755
7096.30	56.61	0.0340007
7100.30	56.55	0.0339644
7104.30	56.48	0.0338977
7108.30	56.41	0.0338786
7112.30	56.35	0.0338494
7116.30	56.28	0.0337955
7120.30	56.21	0.0337517
7124.30	56.14	0.0338359
7128.30	56.08	0.0338390
7132.30	56.01	0.0338531
7136.30	55.95	0.0338264
7140.30	55.88	0.0337303
7144.30	55.81	0.0337077
7148.30	55.75	0.0337416
7152.30	55.68	0.0336926
7156.30	55.61	0.0336419
7160.30	55.54	0.0335745
7164.30	55.48	0.0335782
7168.30	55.41	0.0335773
7172.30	55.35	0.0335955
7176.30	55.28	0.0335894
7180.30	55.21	0.0335465
7184.30	55.15	0.0334551
7188.30	55.08	0.0334415
7192.30	55.01	0.0334188
7196.30	54.94	0.0334289
7200.30	54.88	0.0333816
7204.30	54.81	0.0334070
7208.30	54.75	0.0333246
7212.30	54.68	0.0332383
7216.30	54.61	0.0332416
7220.30	54.55	0.0332261
7224.30	54.48	0.0332671
7228.30	54.41	0.0333778
7232.30	54.35	0.0334043
7236.30	54.28	0.0333822
7240.30	54.21	0.0332963
7244.30	54.15	0.0333054
7248.30	54.08	0.0332864
7252.30	54.01	0.0332781
7256.30	53.95	0.0333254
7260.30	53.88	0.0333846
7264.30	53.81	0.0333996
7268.30	53.74	0.0334217
7272.30	53.68	0.0333946
7276.30	53.61	0.0334400
7280.30	53.54	0.0334503
7284.30	53.48	0.0334902
7288.30	53.41	0.0334210
7292.30	53.35	0.0333932
7296.30	53.28	0.0333154
7300.30	53.21	0.0332558
7304.30	53.15	0.0332408
7308.30	53.08	0.0332548
7312.30	53.01	0.0332552
7316.30	52.95	0.0332780
7320.30	52.88	0.0332236
7324.30	52.81	0.0331949
7328.30	52.75	0.0332334
7332.30	52.68	0.0332792
7336.30	52.61	0.0333019
7340.30	52.55	0.0333699
7344.30	52.48	0.0334028
7348.30	52.41	0.0334053
7352.30	52.35	0.0334406
7356.30	52.28	0.0334012
7360.30	52.21	0.0333719
7364.30	52.14	0.0333388
7368.30	52.08	0.0333030
7372.30	52.01	0.0332639
7376.30	51.95	0.0332545
7380.30	51.88	0.0332128
7384.30	51.81	0.0332078
7388.30	51.75	0.0331829
7392.30	51.68	0.0331557
7396.30	51.61	0.0330907
7400.30	51.54	0.0330840
7404.30	51.48	0.0330790
7408.30	51.41	0.0330266
7412.30	51.35	0.0330113
7416.30	51.28	0.0329460
7420.30	51.21	0.0328652
7424.30	51.15	0.0328472
7428.30	51.08	0.0328707
7432.30	51.01	0.0328822
7436.30	50.95	0.0328534
7440.30	50.88	0.0328776
7444.30	50.81	0.0328840
7448.30	50.75	0.0329127
7452.30	50.68	0.0329140
7456.30	50.61	0.0329240
7460.30	50.55	0.0328908
7464.30	50.48	0.0329182
7468.30	50.41	0.0328979
7472.30	50.35	0.0328959
7476.30	50.28	0.0328650
7480.30	50.21	0.0328469
7484.30	50.14	0.0328144
7488.30	50.08	0.0327922
7492.30	50.01	0.0327383
7496.30	49.94	0.0326863
7500.30	49.88	0.0326738
7504.30	49.81	0.0326647
7508.30	49.74	0.0326157
7512.30	49.68	0.0325992
7516.30	49.61	0.0325984
7520.30	49.55	0.0325860
7524.30	49.48	0.0325699
7528.30	49.41	0.0325442
7532.30	49.34	0.0325525
7536.30	49.28	0.0325692
7540.30	49.21	0.0325692
7544.30	49.15	0.0325776
7548.30	49.08	0.0325149
7552.30	49.01	0.0250608
7556.30	48.95	0.0402585
7560.30	48.97	-0.0704876
7564.30	49.38	0.606875
7568.30	49.77	3.13099
7572.30	49.64	3.04400
7576.30	49.49	2.72847
7580.30	49.39	2.55544
7584.30	49.36	2.58726
7588.30	49.37	2.89450
7592.30	49.21	3.10511
7596.30	48.76	1.80478
7600.30	48.48	1.01547
7604.30	48.29	0.588315
7608.30	48.16	0.336950
7612.30	48.06	0.206007
7616.30	47.97	0.135527
7620.30	47.90	0.100309
7624.30	47.82	0.0724048
7628.30	47.75	0.0589733
7632.30	47.68	0.0514043
7636.30	47.62	0.0477446
7640.30	47.55	0.0460604
7644.30	47.48	0.0447775
7648.30	47.41	0.0434880
7652.30	47.35	0.0420955
7656.30	47.28	0.0409361
7660.30	47.21	0.0399162
7664.30	47.15	0.0390782
7668.30	47.08	0.0382543
7672.30	47.01	0.0375726
7676.30	46.94	0.0369548
7680.30	46.88	0.0363902
7684.30	46.81	0.0359146
7688.30	46.74	0.0354713
7692.30	46.68	0.0351181
7696.30	46.61	0.0347738
7700.30	46.54	0.0344584
7704.30	46.48	0.0341708
7708.30	46.41	0.0339858
7712.30	46.35	0.0337492
7716.30	46.28	0.0335874
7720.30	46.21	0.0334429
7724.30	46.14	0.0332931
7728.30	46.08	0.0331768
7732.30	46.01	0.0330444
7736.30	45.94	0.0329073
7740.30	45.88	0.0327739
7744.30	45.81	0.0326618
7748.30	45.74	0.0325172
7752.30	45.68	0.0323979
7756.30	45.61	0.0322616
7760.30	45.54	0.0321740
7764.30	45.48	0.0320142
7768.30	45.41	0.0318975
7772.30	45.34	0.0317815
7776.30	45.28	0.0316879
7780.30	45.21	0.0316162
7784.30	45.14	0.0315134
7788.30	45.08	0.0313771
7792.30	45.01	0.0312554
7796.30	44.94	0.0311619
7800.30	44.88	0.0311192
7804.30	44.81	0.0310037
7808.30	44.74	0.0309625
7812.30	44.68	0.0309136
7816.30	44.61	0.0308745
7820.30	44.54	0.0308077
7824.30	44.48	0.0307255
7828.30	44.41	0.0306361
7832.30	44.34	0.0306003
7836.30	44.28	0.0305415
7840.30	44.21	0.0304446
7844.30	44.14	0.0303427
7848.30	44.08	0.0302832
7852.30	44.01	0.0302265
7856.30	43.94	0.0301912
7860.30	43.88	0.0301552
7864.30	43.81	0.0300527
7868.30	43.74	0.0300201
7872.30	43.68	0.0299340
7876.30	43.61	0.0298765
7880.30	43.54	0.0298239
7884.30	43.48	0.0297587
7888.30	43.41	0.0296700
7892.30	43.34	0.0296812
7896.30	43.27	0.0295633
7900.30	43.21	0.0295525
7904.30	43.14	0.0294024
7908.30	43.08	0.0292997
7912.30	43.01	0.0292298
7916.30	42.94	0.0291783
7920.30	42.88	0.0291412
7924.30	42.81	0.0291169
7928.30	42.74	0.0290576
7932.30	42.68	0.0289917
7936.30	42.61	0.0289374
7940.30	42.54	0.0288641
7944.30	42.48	0.0287931
7948.30	42.41	0.0287509
7952.30	42.34	0.0286702
7956.30	42.28	0.0286054
7960.30	42.21	0.0285356
7964.30	42.14	0.0285114
7968.30	42.08	0.0285223
7972.30	42.01	0.0285833
7976.30	41.94	0.0285569
7980.30	41.88	0.0285159
7984.30	41.81	0.0284557
7988.30	41.74	0.0283697
7992.30	41.68	0.0283142
7996.30	41.61	0.0282646
8000.30	41.54	0.0281906
8004.30	41.47	0.0281746
8008.30	41.41	0.0281443
8012.30	41.34	0.0281222
8016.30	41.28	0.0280831
8020.30	41.21	0.0280035
8024.30	41.14	0.0279957
8028.30	41.08	0.0279253
8032.30	41.01	0.0278488
8036.30	40.94	0.0278302
8040.30	40.88	0.0278375
8044.30	40.81	0.0277978
8048.30	40.74	0.0277561
8052.30	40.68	0.0277164
8056.30	40.61	0.0276654
8060.30	40.54	0.0276403
8064.30	40.48	0.0275886
8068.30	40.41	0.0275898
8072.30	40.34	0.0276154
8076.30	40.28	0.0275779
8080.30	40.21	0.0275383
8084.30	40.14	0.0275152
8088.30	40.08	0.0274132
8092.30	40.01	0.0273603
8096.30	39.94	0.0272810
8100.30	39.88	0.0272674
8104.30	39.81	0.0272134
8108.30	39.74	0.0272063
8112.30	39.68	0.0271956
8116.30	39.61	0.0272088
8120.30	39.54	0.0272263
8124.30	39.47	0.0272335
8128.30	39.41	0.0271858
8132.30	39.34	0.0271028
8136.30	39.27	0.0270201
8140.30	39.20	0.0271796
8144.30	39.14	0.0272928
8148.30	39.07	0.0272949
8152.30	39.00	0.0271922
8156.30	38.94	0.0270270
8160.30	38.87	0.0269044
8164.30	38.81	0.0267467
8168.30	38.74	0.0266607
8172.30	38.67	0.0266119
8176.30	38.61	0.0265060
8180.30	38.54	0.0264424
8184.30	38.47	0.0264559
8188.30	38.41	0.0264396
8192.30	38.34	0.0263940
8196.30	38.27	0.0263523
8200.30	38.21	0.0263279
8204.30	38.14	0.0263401
8208.30	38.07	0.0263010
8212.30	38.01	0.0262714
8216.30	37.94	0.0262272
8220.30	37.88	0.0262043
8224.30	37.81	0.0261967
8228.30	37.74	0.0262263
8232.30	37.68	0.0262161
8236.30	37.61	0.0262287
8240.30	37.54	0.0261724
8244.30	37.48	0.0261617
8248.30	37.41	0.0261635
8252.30	37.34	0.0261188
8256.30	37.28	0.0261353
8260.30	37.21	0.0260867
8264.30	37.14	0.0260435
8268.30	37.07	0.0260017
8272.30	37.01	0.0259696
8276.30	36.94	0.0259494
8280.30	36.87	0.0259574
8284.30	36.81	0.0259349
8288.30	36.74	0.0259018
8292.30	36.68	0.0259141
8296.30	36.61	0.0258874
8300.30	36.54	0.0258327
8304.30	36.48	0.0257533
8308.30	36.41	0.0257374
8312.30	36.34	0.0257280
8316.30	36.28	0.0257090
8320.30	36.21	0.0257061
8324.30	36.14	0.0256492
8328.30	36.07	0.0256573
8332.30	36.01	0.0256166
8336.30	35.94	0.0255783
8340.30	35.88	0.0255661
8344.30	35.81	0.0255188
8348.30	35.74	0.0254933
8352.30	35.68	0.0255187
8356.30	35.61	0.0253501
8360.30	35.55	0.0251062
8364.30	35.48	0.0250241
8368.30	35.41	0.0250472
8372.30	35.34	0.0251754
8376.30	35.28	0.0253103
8380.30	35.21	0.0253193
8384.30	35.15	0.0253215
8388.30	35.08	0.0253442
8392.30	35.01	0.0253799
8396.30	34.94	0.0253889
8400.30	34.88	0.0253985
8404.30	34.81	0.0254082
8408.30	34.74	0.0254510
8412.30	34.68	0.0254418
8416.30	34.61	0.0254288
8420.30	34.54	0.0253821
8424.30	34.47	0.0253768
8428.30	34.41	0.0253015
8432.30	34.34	0.0252319
8436.30	34.28	0.0252090
8440.30	34.21	0.0251368
8444.30	34.14	0.0251204
8448.30	34.07	0.0250786
8452.30	34.01	0.0250623
8456.30	33.94	0.0250628
8460.30	33.88	0.0250441
8464.30	33.81	0.0250781
8468.30	33.74	0.0250637
8472.30	33.67	0.0250608
8476.30	33.61	0.0250070
8480.30	33.54	0.0249357
8484.30	33.47	0.0249506
8488.30	33.41	0.0249184
8492.30	33.34	0.0248695
8496.30	33.28	0.0248313
8500.30	33.21	0.0248508
8504.30	33.14	0.0248018
8508.30	33.07	0.0247971
8512.30	33.01	0.0247558
8516.30	32.94	0.0247581
8520.30	32.87	0.0247859
8524.30	32.81	0.0247817
8528.30	32.74	0.0247768
8532.30	32.67	0.0247639
8536.30	32.61	0.0246516
8540.30	32.54	0.0245996
8544.30	32.47	0.0245473
8548.30	32.41	0.0245140
8552.30	32.34	0.0244884
8556.30	32.28	0.0244126
8560.30	32.21	0.0243332
8564.30	32.14	0.0243979
8568.30	32.07	0.0244374
8572.30	32.00	0.0245183
8576.30	31.94	0.0244986
8580.30	31.87	0.0246134
8584.30	31.80	0.0246775
8588.30	31.74	0.0246316
8592.30	31.67	0.0245197
8596.30	31.60	0.0243739
8600.30	31.54	0.0242877
8604.30	31.47	0.0242166
8608.30	31.41	0.0240896
8612.30	31.34	0.0240585
8616.30	31.27	0.0240336
8620.30	31.21	0.0240255
8624.30	31.14	0.0240212
8628.30	31.08	0.0240743
8632.30	31.01	0.0239313
8636.30	30.95	0.0237089
8640.30	30.88	0.0235467
8644.30	30.81	0.0235428
8648.30	30.75	0.0236687
8652.30	30.68	0.0238191
8656.30	30.61	0.0239616
8660.30	30.54	0.0240733
8664.30	30.48	0.0241517
8668.30	30.41	0.0241648
8672.30	30.34	0.0242233
8676.30	30.27	0.0242018
8680.30	30.21	0.0241747
8684.30	30.14	0.0241719
8688.30	30.07	0.0241092
8692.30	30.01	0.0240587
8696.30	29.94	0.0240270
8700.30	29.87	0.0241043
8704.30	29.81	0.0239537
8708.30	29.74	0.0237917
8712.30	29.67	0.0237768
8716.30	29.60	0.0239882
8720.30	29.54	0.0241752
8724.30	29.47	0.0242361
8728.30	29.40	0.0241538
8732.30	29.34	0.0240355
8736.30	29.27	0.0239000
8740.30	29.21	0.0238119
8744.30	29.14	0.0237286
8748.30	29.07	0.0236628
8752.30	29.01	0.0236088
8756.30	28.94	0.0235488
8760.30	28.87	0.0235442
8764.30	28.81	0.0235644
8768.30	28.74	0.0235455
8772.30	28.67	0.0235301
8776.30	28.61	0.0235606
8780.30	28.54	0.0235354
8784.30	28.47	0.0235962
8788.30	28.41	0.0235794
8792.30	28.34	0.0235504
8796.30	28.27	0.0235412
8800.30	28.21	0.0235547
8804.30	28.14	0.0234801
8808.30	28.07	0.0234586
8812.30	28.01	0.0234410
8816.30	27.94	0.0234396
8820.30	27.87	0.0234298
8824.30	27.81	0.0234052
8828.30	27.74	0.0234109
8832.30	27.68	0.0233433
8836.30	27.61	0.0231293
8840.30	27.54	0.0230287
8844.30	27.48	0.0230018
8848.30	27.41	0.0231095
8852.30	27.34	0.0232076
8856.30	27.28	0.0232272
8860.30	27.21	0.0232276
8864.30	27.14	0.0232100
8868.30	27.08	0.0232893
8872.30	27.01	0.0233627
8876.30	26.94	0.0233856
8880.30	26.87	0.0233715
8884.30	26.81	0.0232527
8888.30	26.74	0.0232967
8892.30	26.67	0.0232501
8896.30	26.61	0.0232359
8900.30	26.54	0.0231753
8904.30	26.47	0.0231328
8908.30	26.41	0.0231664
8912.30	26.34	0.0231477
8916.30	26.27	0.0231204
8920.30	26.21	0.0230830
8924.30	26.14	0.0230246
8928.30	26.07	0.0229921
8932.30	26.01	0.0229426
8936.30	25.94	0.0229471
8940.30	25.87	0.0229012
8944.30	25.81	0.0228753
8948.30	25.74	0.0228976
8952.30	25.67	0.0229827
8956.30	25.61	0.0229515
8960.30	25.54	0.0229584
8964.30	25.47	0.0229160
8968.30	25.41	0.0229132
8972.30	25.34	0.0228959
8976.30	25.27	0.0229039
8980.30	25.21	0.0228427
8984.30	25.14	0.0227784
8988.30	25.07	0.0227519
8992.30	25.01	0.0227530
8996.30	24.94	0.0227143
9000.30	24.88	0.0226693
9004.30	24.81	0.0226262
9008.30	24.74	0.0226700
9012.30	24.67	0.0227024
9016.30	24.61	0.0227187
9020.30	24.54	0.0226772
9024.30	24.47	0.0226664
9028.30	24.41	0.0226621
9032.30	24.34	0.0226887
9036.30	24.27	0.0227532
9040.30	24.21	0.0228519
9044.30	24.14	0.0228840
9048.30	24.07	0.0228834
9052.30	24.01	0.0227898
9056.30	23.94	0.0227440
9060.30	23.87	0.0227085
9064.30	23.80	0.0226553
9068.30	23.74	0.0227239
9072.30	23.67	0.0226658
9076.30	23.60	0.0227037
9080.30	23.54	0.0226401
9084.30	23.47	0.0226117
9088.30	23.40	0.0224565
9092.30	23.34	0.0223488
9096.30	23.27	0.0223127
9100.30	23.21	0.0222470
9104.30	23.14	0.0222573
9108.30	23.07	0.0223388
9112.30	23.01	0.0223212
9116.30	22.94	0.0223001
9120.30	22.87	0.0224203
9124.30	22.80	0.0225717
9128.30	22.73	0.0225593
9132.30	22.67	0.0225393
9136.30	22.60	0.0224417
9140.30	22.54	0.0223775
9144.30	22.47	0.0223238
9148.30	22.40	0.0222797
9152.30	22.34	0.0222271
9156.30	22.27	0.0222330
9160.30	22.20	0.0222568
9164.30	22.14	0.0222252
9168.30	22.07	0.0222610
9172.30	22.01	0.0222347
9176.30	21.94	0.0222745
9180.30	21.87	0.0222775
9184.30	21.81	0.0222886
9188.30	21.74	0.0223000
9192.30	21.67	0.0222956
9196.30	21.61	0.0222973
9200.30	21.54	0.0223173
9204.30	21.47	0.0223149
9208.30	21.41	0.0222634
9212.30	21.34	0.0222746
9216.30	21.28	0.0221875
9220.30	21.21	0.0219471
9224.30	21.15	0.0218016
9228.30	21.08	0.0217969
9232.30	21.01	0.0218868
9236.30	20.94	0.0219550
9240.30	20.87	0.0220875
9244.30	20.81	0.0221736
9248.30	20.74	0.0221876
9252.30	20.67	0.0221738
9256.30	20.61	0.0221686
9260.30	20.54	0.0222150
9264.30	20.47	0.0222220
9268.30	20.41	0.0222213
9272.30	20.34	0.0222397
9276.30	20.27	0.0222767
9280.30	20.21	0.0222212
9284.30	20.14	0.0221316
9288.30	20.07	0.0221088
9292.30	20.01	0.0221036
9296.30	19.94	0.0221157
9300.30	19.87	0.0221746
9304.30	19.81	0.0223254
9308.30	19.74	0.0224890
9312.30	19.67	0.0225872
9316.30	19.60	0.0226588
9320.30	19.53	0.0227999
9324.30	19.47	0.0228211
9328.30	19.40	0.0229024
9332.30	19.33	0.0228434
9336.30	19.27	0.0227039
9340.30	19.20	0.0225650
9344.30	19.14	0.0223734
9348.30	19.08	0.0220189
9352.30	19.01	0.0217439
9356.30	18.94	0.0216419
9360.30	18.88	0.0216747
9364.30	18.81	0.0217945
9368.30	18.74	0.0218630
9372.30	18.67	0.0218664
9376.30	18.61	0.0218675
9380.30	18.54	0.0218820
9384.30	18.47	0.0219245
9388.30	18.41	0.0219009
9392.30	18.34	0.0218866
9396.30	18.27	0.0218511
9400.30	18.21	0.0218170
9404.30	18.14	0.0218165
9408.30	18.07	0.0218328
9412.30	18.01	0.0218094
9416.30	17.94	0.0218042
9420.30	17.87	0.0218527
9424.30	17.81	0.0218823
9428.30	17.74	0.0218565
9432.30	17.67	0.0218302
9436.30	17.60	0.0218389
9440.30	17.53	0.0219656
9444.30	17.47	0.0222355
9448.30	17.41	0.0221189
9452.30	17.34	0.0218572
9456.30	17.27	0.0216677
9460.30	17.21	0.0215823
9464.30	17.14	0.0215741
9468.30	17.07	0.0217179
9472.30	17.00	0.0220252
9476.30	16.94	0.0221416
9480.30	16.87	0.0219917
9484.30	16.81	0.0216640
9488.30	16.74	0.0214345
9492.30	16.68	0.0213911
9496.30	16.61	0.0214191
9500.30	16.54	0.0214983
9504.30	16.47	0.0215564
9508.30	16.41	0.0215881
9512.30	16.34	0.0216360
9516.30	16.27	0.0216175
9520.30	16.21	0.0215536
9524.30	16.14	0.0214938
9528.30	16.07	0.0214965
9532.30	16.01	0.0214895
9536.30	15.94	0.0215009
9540.30	15.87	0.0215036
9544.30	15.80	0.0215215
9548.30	15.74	0.0215887
9552.30	15.67	0.0215858
9556.30	15.60	0.0215200
9560.30	15.53	0.0216208
9564.30	15.46	0.0218361
9568.30	15.40	0.0219114
9572.30	15.33	0.0218595
9576.30	15.27	0.0217256
9580.30	15.20	0.0215793
9584.30	15.14	0.0214326
9588.30	15.07	0.0213307
9592.30	15.00	0.0212658
9596.30	14.94	0.0212407
9600.30	14.87	0.0212256
9604.30	14.80	0.0212267
9608.30	14.74	0.0211890
9612.30	14.67	0.0211789
9616.30	14.60	0.0211845
9620.30	14.54	0.0211605
9624.30	14.47	0.0211414
9628.30	14.40	0.0211749
9632.30	14.34	0.0211182
9636.30	14.27	0.0211514
9640.30	14.20	0.0211385
9644.30	14.14	0.0211503
9648.30	14.07	0.0211378
9652.30	14.01	0.0211500
9656.30	13.94	0.0210344
9660.30	13.87	0.0210011
9664.30	13.81	0.0211287
9668.30	13.74	0.0212373
9672.30	13.67	0.0212418
9676.30	13.61	0.0212547
9680.30	13.54	0.0212712
9684.30	13.47	0.0212666
9688.30	13.40	0.0212574
9692.30	13.34	0.0212364
9696.30	13.27	0.0211741
9700.30	13.21	0.0211165
9704.30	13.14	0.0210994
9708.30	13.07	0.0210911
9712.30	13.00	0.0210879
9716.30	12.94	0.0210826
9720.30	12.87	0.0210786
9724.30	12.80	0.0210529
9728.30	12.74	0.0210569
9732.30	12.67	0.0210310
9736.30	12.60	0.0209875
9740.30	12.54	0.0209524
9744.30	12.47	0.0209622
9748.30	12.40	0.0209700
9752.30	12.34	0.0209675
9756.30	12.27	0.0209165
9760.30	12.20	0.0209019
9764.30	12.14	0.0208739
9768.30	12.07	0.0208557
9772.30	12.00	0.0208453
9776.30	11.94	0.0208357
9780.30	11.87	0.0208566
9784.30	11.80	0.0208419
9788.30	11.74	0.0208744
9792.30	11.67	0.0208377
9796.30	11.60	0.0208031
9800.30	11.54	0.0207752
9804.30	11.47	0.0207841
9808.30	11.40	0.0207854
9812.30	11.34	0.0207311
9816.30	11.27	0.0207343
9820.30	11.21	0.0207341
9824.30	11.14	0.0207248
9828.30	11.07	0.0207452
9832.30	11.01	0.0207192
9836.30	10.94	0.0207559
9840.30	10.87	0.0208258
9844.30	10.81	0.0208382
9848.30	10.74	0.0207603
9852.30	10.67	0.0207992
9856.30	10.61	0.0207590
9860.30	10.54	0.0207545
9864.30	10.47	0.0207429
9868.30	10.41	0.0206937
9872.30	10.34	0.0206956
9876.30	10.27	0.0206805
9880.30	10.20	0.0206910
9884.30	10.14	0.0206683
9888.30	10.07	0.0206375
9892.30	10.00	0.0206276
9896.30	9.94	0.0206175
9900.30	9.87	0.0206198
9904.30	9.80	0.0206020
9908.30	9.74	0.0206201
9912.30	9.67	0.0205830
9916.30	9.60	0.0205558
9920.30	9.54	0.0205760
9924.30	9.47	0.0205173
9928.30	9.40	0.0204798
9932.30	9.34	0.0204787
9936.30	9.27	0.0204463
9940.30	9.20	0.0204473
9944.30	9.14	0.0203986
9948.30	9.07	0.0203809
9952.30	9.00	0.0203514
9956.30	8.94	0.0203479
9960.30	8.87	0.0203021
9964.30	8.80	0.0202842
9968.30	8.74	0.0202616
9972.30	8.67	0.0202856
9976.30	8.60	0.0202837
9980.30	8.54	0.0202926
9984.30	8.47	0.0203012
9988.30	8.40	0.0202848
9992.30	8.34	0.0202361
9996.30	8.27	0.0202225
10000.3	8.20	0.0202061
10004.3	8.14	0.0202135
10008.3	8.07	0.0201997
10012.3	8.00	0.0202089
10016.3	7.94	0.0201713
10020.3	7.87	0.0201854
10024.3	7.80	0.0201475
10028.3	7.74	0.0201236
10032.3	7.67	0.0200598
10036.3	7.60	0.0200750
10040.3	7.54	0.0200691
10044.3	7.47	0.0201057
10048.3	7.40	0.0200470
10052.3	7.34	0.0200441
10056.3	7.27	0.0200295
10060.3	7.20	0.0199786
10064.3	7.14	0.0199880
10068.3	7.07	0.0199405
10072.3	7.00	0.0199509
10076.3	6.94	0.0199618
10080.3	6.87	0.0200043
10084.3	6.80	0.0199837
10088.3	6.74	0.0199770
10092.3	6.67	0.0199993
10096.3	6.60	0.0199859
10100.3	6.54	0.0199382
10104.3	6.47	0.0199307
10108.3	6.40	0.0199024
10112.3	6.34	0.0199813
10116.3	6.27	0.0199767
10120.3	6.20	0.0199676
10124.3	6.14	0.0199499
10128.3	6.07	0.0199464
10132.3	6.00	0.0198964
10136.3	5.94	0.0198946
10140.3	5.87	0.0198945
10144.3	5.80	0.0198247
10148.3	5.74	0.0197760
10152.3	5.67	0.0197806
10156.3	5.60	0.0197318
10160.3	5.54	0.0197306
10164.3	5.47	0.0197271
10168.3	5.40	0.0197427
10172.3	5.34	0.0197519
10176.3	5.27	0.0197550
10180.3	5.20	0.0197753
10184.3	5.14	0.0197435
10188.3	5.07	0.0197217
10192.3	5.00	0.0197338
10196.3	4.94	0.0197396
10200.3	4.87	0.0197297
10204.3	4.80	0.0196989
10208.3	4.74	0.0196989
10212.3	4.67	0.0196646
10216.3	4.60	0.0196370
10220.3	4.54	0.0196553
10224.3	4.47	0.0196448
10228.3	4.40	0.0196480
10232.3	4.34	0.0196009
10236.3	4.27	0.0196014
10240.3	4.20	0.0195633
10244.3	4.14	0.0195422
10248.3	4.07	0.0195467
10252.3	4.00	0.0195421
10256.3	3.94	0.0195618
10260.3	3.87	0.0195820
10264.3	3.80	0.0195572
10268.3	3.74	0.0195492
10272.3	3.67	0.0195827
10276.3	3.60	0.0195364
10280.3	3.54	0.0194753
10284.3	3.47	0.0195017
10288.3	3.40	0.0194975
10292.3	3.34	0.0194987
10296.3	3.27	0.0195006
10300.3	3.20	0.0194917
10304.3	3.14	0.0194346
10308.3	3.07	0.0194419
10312.3	3.00	0.0194079
10316.3	2.94	0.0194064
10320.3	2.87	0.0193761
10324.3	2.80	0.0194130
10328.3	2.74	0.0193580
10332.3	2.67	0.0194217
10336.3	2.60	0.0194095
10340.3	2.54	0.0194066
10344.3	2.47	0.0194026
10348.3	2.40	0.0194064
10352.3	2.34	0.0194160
10356.3	2.27	0.0193979
10360.3	2.20	0.0193692
10364.3	2.14	0.0194021
10368.3	2.07	0.0194265
10372.3	2.00	0.0194367
10376.3	1.94	0.0193991
10380.3	1.87	0.0194299
10384.3	1.80	0.0193923
10388.3	1.74	0.0193896
10392.3	1.67	0.0193533
10396.3	1.60	0.0193500
10400.3	1.54	0.0193668
10404.3	1.47	0.0193713
10408.3	1.40	0.0193677
10412.3	1.34	0.0193608
10416.3	1.27	0.0193949
10420.3	1.20	0.0194054
10424.3	1.14	0.0193970
10428.3	1.07	0.0193889
10432.3	1.00	0.0194144
10436.3	0.94	0.0193645
10440.3	0.87	0.0193375
10444.3	0.80	0.0193533
10448.3	0.74	0.0193938
10452.3	0.67	0.0193931
10456.3	0.60	0.0193733
10460.3	0.54	0.0193871
10464.3	0.47	0.0193759
10468.3	0.40	0.0193546
10472.3	0.34	0.0193780
10476.3	0.27	0.0193670
10480.3	0.20	0.0193851
10484.3	0.14	0.0193894
10488.3	0.07	0.0193986
10492.3	0.00	0.0194000
10496.3	-0.06	0.0193967
10500.2	-0.13	0.0193873