File: Differential scanning calorimetry/12OCB Squalene/12OCB SqE wt fraction 320.txt
Filename	Sq12OCB320
Instrument name	DSC2A-00101 (192.168.10.4)
Operator	Yuma
rundate	2/3/2021
Sample name	Sq12OCB320
proceduresegments	Jump 100.00 °C; Isothermal 10.0 min; Jump 0.00 °C; Isothermal 5.0 min; Mark End of Cycle ; Ramp 5.00 °C/min to 100.00 °C; Mark End of Cycle ; Ramp 5.00 °C/min to 0.00 °C; Mark End of Cycle ; Ramp 5.00 °C/min to 100.00 °C; Mark End of Cycle ; Ramp 1.00 °C/min to 0.00 °C; Mark End of Cycle ; Ramp 5.00 °C/min to 100.00 °C; Mark End of Cycle ; Ramp 10.00 °C/min to 0.00 °C; Mark End of Cycle ; Ramp 10.00 °C/min to 100.00 °C; Mark End of Cycle ; Jump 0.00 °C; Mark End of Cycle
[step]
Ramp 1.00 °C/min to 0.00 °C
Time	Temperature	Heat Flow (Normalized)
s	°C	W/g
4500.30	98.96	-0.148333
4504.30	99.27	-0.140833
4508.30	99.44	-0.197640
4512.30	99.49	-0.126980
4516.30	99.48	-0.0628432
4520.30	99.44	-0.0246020
4524.30	99.39	-3.95396e-3
4528.30	99.33	5.59603e-3
4532.30	99.26	0.0106704
4536.30	99.20	0.0131258
4540.30	99.13	0.0142780
4544.30	99.07	0.0154780
4548.30	99.00	0.0163724
4552.30	98.93	0.0171112
4556.30	98.87	0.0176860
4560.30	98.80	0.0181016
4564.30	98.73	0.0183964
4568.30	98.67	0.0186094
4572.30	98.60	0.0187721
4576.30	98.54	0.0188848
4580.30	98.47	0.0189943
4584.30	98.40	0.0190476
4588.30	98.34	0.0190627
4592.30	98.27	0.0191010
4596.30	98.20	0.0190762
4600.30	98.14	0.0190840
4604.30	98.07	0.0190645
4608.30	98.00	0.0190434
4612.30	97.94	0.0190932
4616.30	97.87	0.0190564
4620.30	97.80	0.0190567
4624.30	97.74	0.0190617
4628.30	97.67	0.0190541
4632.30	97.60	0.0190689
4636.30	97.54	0.0190524
4640.30	97.47	0.0190602
4644.30	97.40	0.0190525
4648.30	97.34	0.0190455
4652.30	97.27	0.0190079
4656.30	97.20	0.0190053
4660.30	97.14	0.0189891
4664.30	97.07	0.0189509
4668.30	97.01	0.0189492
4672.30	96.94	0.0189210
4676.30	96.87	0.0189281
4680.30	96.81	0.0189401
4684.30	96.74	0.0189225
4688.30	96.67	0.0189177
4692.30	96.61	0.0189008
4696.30	96.54	0.0189147
4700.30	96.47	0.0189165
4704.30	96.40	0.0188636
4708.30	96.34	0.0188542
4712.30	96.27	0.0188657
4716.30	96.20	0.0188725
4720.30	96.14	0.0188557
4724.30	96.07	0.0187969
4728.30	96.01	0.0188236
4732.30	95.94	0.0188633
4736.30	95.87	0.0188463
4740.30	95.80	0.0188270
4744.30	95.74	0.0187921
4748.30	95.67	0.0187653
4752.30	95.60	0.0188106
4756.30	95.54	0.0187988
4760.30	95.47	0.0187914
4764.30	95.41	0.0187649
4768.30	95.34	0.0187873
4772.30	95.27	0.0187870
4776.30	95.21	0.0188219
4780.30	95.14	0.0188411
4784.30	95.07	0.0188564
4788.30	95.01	0.0188590
4792.30	94.94	0.0188918
4796.30	94.87	0.0189050
4800.30	94.80	0.0189124
4804.30	94.74	0.0189061
4808.30	94.67	0.0189510
4812.30	94.61	0.0189695
4816.30	94.54	0.0189823
4820.30	94.47	0.0189692
4824.30	94.41	0.0189949
4828.30	94.34	0.0189655
4832.30	94.27	0.0189612
4836.30	94.21	0.0189735
4840.30	94.14	0.0189851
4844.30	94.07	0.0190080
4848.30	94.01	0.0190154
4852.30	93.94	0.0190221
4856.30	93.87	0.0190235
4860.30	93.81	0.0190278
4864.30	93.74	0.0190426
4868.30	93.67	0.0191001
4872.30	93.61	0.0191167
4876.30	93.54	0.0191164
4880.30	93.47	0.0190900
4884.30	93.41	0.0191046
4888.30	93.34	0.0190993
4892.30	93.27	0.0191539
4896.30	93.21	0.0191548
4900.30	93.14	0.0191665
4904.30	93.07	0.0192143
4908.30	93.01	0.0192127
4912.30	92.94	0.0191953
4916.30	92.87	0.0192335
4920.30	92.81	0.0191882
4924.30	92.74	0.0192000
4928.30	92.67	0.0192367
4932.30	92.61	0.0192376
4936.30	92.54	0.0192490
4940.30	92.47	0.0192194
4944.30	92.41	0.0192299
4948.30	92.34	0.0192469
4952.30	92.27	0.0192423
4956.30	92.21	0.0192650
4960.30	92.14	0.0192951
4964.30	92.07	0.0192978
4968.30	92.01	0.0193102
4972.30	91.94	0.0192910
4976.30	91.87	0.0193053
4980.30	91.81	0.0193141
4984.30	91.74	0.0192897
4988.30	91.67	0.0193178
4992.30	91.61	0.0193342
4996.30	91.54	0.0193048
5000.30	91.47	0.0193114
5004.30	91.41	0.0193162
5008.30	91.34	0.0192934
5012.30	91.27	0.0192978
5016.30	91.21	0.0193025
5020.30	91.14	0.0193415
5024.30	91.07	0.0192667
5028.30	91.01	0.0192672
5032.30	90.94	0.0192733
5036.30	90.87	0.0193134
5040.30	90.81	0.0192952
5044.30	90.74	0.0193193
5048.30	90.67	0.0192847
5052.30	90.61	0.0193124
5056.30	90.54	0.0193206
5060.30	90.47	0.0193289
5064.30	90.41	0.0193344
5068.30	90.34	0.0193311
5072.30	90.27	0.0193427
5076.30	90.21	0.0193121
5080.30	90.14	0.0193394
5084.30	90.07	0.0193082
5088.30	90.01	0.0193360
5092.30	89.94	0.0193750
5096.30	89.87	0.0193483
5100.30	89.81	0.0193677
5104.30	89.74	0.0193570
5108.30	89.67	0.0193631
5112.30	89.61	0.0193859
5116.30	89.54	0.0193890
5120.30	89.47	0.0194628
5124.30	89.41	0.0194109
5128.30	89.34	0.0194228
5132.30	89.27	0.0193753
5136.30	89.21	0.0193843
5140.30	89.14	0.0193974
5144.30	89.07	0.0194017
5148.30	89.01	0.0194135
5152.30	88.94	0.0194125
5156.30	88.87	0.0193995
5160.30	88.81	0.0194183
5164.30	88.74	0.0193913
5168.30	88.67	0.0194134
5172.30	88.61	0.0194254
5176.30	88.54	0.0194593
5180.30	88.47	0.0194353
5184.30	88.41	0.0194380
5188.30	88.34	0.0194642
5192.30	88.27	0.0194502
5196.30	88.21	0.0194635
5200.30	88.14	0.0194783
5204.30	88.07	0.0194966
5208.30	88.01	0.0195023
5212.30	87.94	0.0195307
5216.30	87.87	0.0195401
5220.30	87.81	0.0195197
5224.30	87.74	0.0195170
5228.30	87.67	0.0195435
5232.30	87.61	0.0195348
5236.30	87.54	0.0195443
5240.30	87.47	0.0195824
5244.30	87.41	0.0195788
5248.30	87.34	0.0196084
5252.30	87.27	0.0196457
5256.30	87.21	0.0196164
5260.30	87.14	0.0196350
5264.30	87.07	0.0196096
5268.30	87.01	0.0196144
5272.30	86.94	0.0196023
5276.30	86.87	0.0196288
5280.30	86.81	0.0196632
5284.30	86.74	0.0196274
5288.30	86.67	0.0196544
5292.30	86.61	0.0196201
5296.30	86.54	0.0196463
5300.30	86.48	0.0196217
5304.30	86.41	0.0196153
5308.30	86.34	0.0196404
5312.30	86.27	0.0196681
5316.30	86.21	0.0196401
5320.30	86.14	0.0196432
5324.30	86.07	0.0196864
5328.30	86.01	0.0196815
5332.30	85.94	0.0197006
5336.30	85.87	0.0196965
5340.30	85.81	0.0196844
5344.30	85.74	0.0197215
5348.30	85.67	0.0196871
5352.30	85.61	0.0197174
5356.30	85.54	0.0197167
5360.30	85.47	0.0197009
5364.30	85.41	0.0197087
5368.30	85.34	0.0197323
5372.30	85.27	0.0196991
5376.30	85.21	0.0196939
5380.30	85.14	0.0197186
5384.30	85.07	0.0197181
5388.30	85.01	0.0197176
5392.30	84.94	0.0197299
5396.30	84.87	0.0197077
5400.30	84.81	0.0197339
5404.30	84.74	0.0197191
5408.30	84.67	0.0197427
5412.30	84.61	0.0197694
5416.30	84.54	0.0197935
5420.30	84.47	0.0198033
5424.30	84.41	0.0197944
5428.30	84.34	0.0198235
5432.30	84.27	0.0197756
5436.30	84.21	0.0198163
5440.30	84.14	0.0197723
5444.30	84.08	0.0197612
5448.30	84.01	0.0197851
5452.30	83.94	0.0197749
5456.30	83.88	0.0198040
5460.30	83.81	0.0197385
5464.30	83.74	0.0197555
5468.30	83.68	0.0197689
5472.30	83.61	0.0197746
5476.30	83.54	0.0198271
5480.30	83.48	0.0198288
5484.30	83.41	0.0198059
5488.30	83.34	0.0198520
5492.30	83.27	0.0198153
5496.30	83.21	0.0198584
5500.30	83.14	0.0198351
5504.30	83.07	0.0199092
5508.30	83.01	0.0199102
5512.30	82.94	0.0198951
5516.30	82.88	0.0199171
5520.30	82.81	0.0199070
5524.30	82.74	0.0199194
5528.30	82.67	0.0199416
5532.30	82.61	0.0199265
5536.30	82.54	0.0199337
5540.30	82.48	0.0199187
5544.30	82.41	0.0199246
5548.30	82.34	0.0199092
5552.30	82.27	0.0199550
5556.30	82.21	0.0199702
5560.30	82.14	0.0199688
5564.30	82.07	0.0199716
5568.30	82.01	0.0200021
5572.30	81.94	0.0199959
5576.30	81.87	0.0199968
5580.30	81.81	0.0200245
5584.30	81.74	0.0200674
5588.30	81.67	0.0200670
5592.30	81.61	0.0200530
5596.30	81.54	0.0200480
5600.30	81.48	0.0200288
5604.30	81.41	0.0200352
5608.30	81.34	0.0200316
5612.30	81.27	0.0200390
5616.30	81.21	0.0200565
5620.30	81.14	0.0200631
5624.30	81.08	0.0200504
5628.30	81.01	0.0200801
5632.30	80.94	0.0201145
5636.30	80.87	0.0201397
5640.30	80.81	0.0201221
5644.30	80.74	0.0201155
5648.30	80.67	0.0201427
5652.30	80.61	0.0201085
5656.30	80.54	0.0201099
5660.30	80.47	0.0200741
5664.30	80.41	0.0201435
5668.30	80.34	0.0201006
5672.30	80.28	0.0201185
5676.30	80.21	0.0201512
5680.30	80.14	0.0201621
5684.30	80.08	0.0201836
5688.30	80.01	0.0201796
5692.30	79.94	0.0202122
5696.30	79.88	0.0202051
5700.30	79.81	0.0201939
5704.30	79.74	0.0202201
5708.30	79.68	0.0202357
5712.30	79.61	0.0202722
5716.30	79.54	0.0202496
5720.30	79.48	0.0202636
5724.30	79.41	0.0202320
5728.30	79.34	0.0202223
5732.30	79.27	0.0202496
5736.30	79.21	0.0202345
5740.30	79.14	0.0202491
5744.30	79.08	0.0202921
5748.30	79.01	0.0203292
5752.30	78.94	0.0202937
5756.30	78.88	0.0202926
5760.30	78.81	0.0203084
5764.30	78.74	0.0203174
5768.30	78.67	0.0202865
5772.30	78.61	0.0203002
5776.30	78.54	0.0203027
5780.30	78.48	0.0203170
5784.30	78.41	0.0203332
5788.30	78.34	0.0203342
5792.30	78.28	0.0203513
5796.30	78.21	0.0203884
5800.30	78.14	0.0203478
5804.30	78.08	0.0204224
5808.30	78.01	0.0204406
5812.30	77.94	0.0204526
5816.30	77.87	0.0204437
5820.30	77.81	0.0204839
5824.30	77.74	0.0205519
5828.30	77.67	0.0205579
5832.30	77.61	0.0205670
5836.30	77.54	0.0205767
5840.30	77.48	0.0206055
5844.30	77.41	0.0206354
5848.30	77.34	0.0206548
5852.30	77.28	0.0206487
5856.30	77.21	0.0206620
5860.30	77.14	0.0206726
5864.30	77.08	0.0206787
5868.30	77.01	0.0207073
5872.30	76.94	0.0207029
5876.30	76.88	0.0206991
5880.30	76.81	0.0207160
5884.30	76.74	0.0207382
5888.30	76.68	0.0207564
5892.30	76.61	0.0207373
5896.30	76.54	0.0207170
5900.30	76.48	0.0207079
5904.30	76.41	0.0207439
5908.30	76.34	0.0207716
5912.30	76.28	0.0207825
5916.30	76.21	0.0208270
5920.30	76.14	0.0208168
5924.30	76.07	0.0208150
5928.30	76.01	0.0208288
5932.30	75.94	0.0208379
5936.30	75.88	0.0208477
5940.30	75.81	0.0209382
5944.30	75.74	0.0209150
5948.30	75.67	0.0209519
5952.30	75.61	0.0209697
5956.30	75.54	0.0209634
5960.30	75.48	0.0209682
5964.30	75.41	0.0209812
5968.30	75.34	0.0210072
5972.30	75.28	0.0209845
5976.30	75.21	0.0210290
5980.30	75.14	0.0209972
5984.30	75.08	0.0210318
5988.30	75.01	0.0210704
5992.30	74.94	0.0210462
5996.30	74.88	0.0210861
6000.30	74.81	0.0210826
6004.30	74.74	0.0211210
6008.30	74.68	0.0210904
6012.30	74.61	0.0211054
6016.30	74.54	0.0211036
6020.30	74.48	0.0211480
6024.30	74.41	0.0211880
6028.30	74.34	0.0211939
6032.30	74.28	0.0212055
6036.30	74.21	0.0212493
6040.30	74.14	0.0212358
6044.30	74.08	0.0212548
6048.30	74.01	0.0212451
6052.30	73.94	0.0212631
6056.30	73.88	0.0212859
6060.30	73.81	0.0212971
6064.30	73.74	0.0212863
6068.30	73.68	0.0213253
6072.30	73.61	0.0213018
6076.30	73.54	0.0213433
6080.30	73.48	0.0213622
6084.30	73.41	0.0214085
6088.30	73.34	0.0214375
6092.30	73.28	0.0214646
6096.30	73.21	0.0214480
6100.30	73.14	0.0215057
6104.30	73.08	0.0214807
6108.30	73.01	0.0215129
6112.30	72.94	0.0215162
6116.30	72.88	0.0215523
6120.30	72.81	0.0215214
6124.30	72.74	0.0215573
6128.30	72.68	0.0215919
6132.30	72.61	0.0216184
6136.30	72.54	0.0216526
6140.30	72.48	0.0216587
6144.30	72.41	0.0216618
6148.30	72.34	0.0216415
6152.30	72.28	0.0216545
6156.30	72.21	0.0216887
6160.30	72.14	0.0216952
6164.30	72.08	0.0217116
6168.30	72.01	0.0217367
6172.30	71.94	0.0217838
6176.30	71.88	0.0218049
6180.30	71.81	0.0218236
6184.30	71.74	0.0218617
6188.30	71.68	0.0219050
6192.30	71.61	0.0218814
6196.30	71.54	0.0218865
6200.30	71.48	0.0218939
6204.30	71.41	0.0219223
6208.30	71.34	0.0219418
6212.30	71.28	0.0219262
6216.30	71.21	0.0219566
6220.30	71.14	0.0219713
6224.30	71.08	0.0219680
6228.30	71.01	0.0219693
6232.30	70.94	0.0220026
6236.30	70.88	0.0219774
6240.30	70.81	0.0219844
6244.30	70.74	0.0219906
6248.30	70.68	0.0219898
6252.30	70.61	0.0220017
6256.30	70.54	0.0220230
6260.30	70.48	0.0220709
6264.30	70.41	0.0220753
6268.30	70.34	0.0220871
6272.30	70.28	0.0221075
6276.30	70.21	0.0220932
6280.30	70.14	0.0220948
6284.30	70.08	0.0220856
6288.30	70.01	0.0220913
6292.30	69.94	0.0221115
6296.30	69.88	0.0221236
6300.30	69.81	0.0220985
6304.30	69.74	0.0221162
6308.30	69.68	0.0221206
6312.30	69.61	0.0221339
6316.30	69.54	0.0221462
6320.30	69.48	0.0221533
6324.30	69.41	0.0221411
6328.30	69.34	0.0221550
6332.30	69.28	0.0221481
6336.30	69.21	0.0221597
6340.30	69.14	0.0221462
6344.30	69.08	0.0221571
6348.30	69.01	0.0221850
6352.30	68.94	0.0221808
6356.30	68.88	0.0221907
6360.30	68.81	0.0221934
6364.30	68.74	0.0221696
6368.30	68.68	0.0222116
6372.30	68.61	0.0222276
6376.30	68.54	0.0222359
6380.30	68.48	0.0222005
6384.30	68.41	0.0222255
6388.30	68.34	0.0222349
6392.30	68.28	0.0222306
6396.30	68.21	0.0222896
6400.30	68.14	0.0223221
6404.30	68.08	0.0223319
6408.30	68.01	0.0223435
6412.30	67.94	0.0223205
6416.30	67.88	0.0223230
6420.30	67.81	0.0223238
6424.30	67.74	0.0223851
6428.30	67.68	0.0224009
6432.30	67.61	0.0223958
6436.30	67.54	0.0224326
6440.30	67.48	0.0224945
6444.30	67.41	0.0226462
6448.30	67.34	0.0228229
6452.30	67.28	0.0230294
6456.30	67.21	0.0232295
6460.30	67.14	0.0233676
6464.30	67.08	0.0236778
6468.30	67.01	0.0240184
6472.30	66.95	0.0250136
6476.30	66.88	0.0264505
6480.30	66.81	0.0278758
6484.30	66.75	0.0292343
6488.30	66.68	0.0307008
6492.30	66.61	0.0321872
6496.30	66.55	0.0334270
6500.30	66.48	0.0345098
6504.30	66.41	0.0355334
6508.30	66.35	0.0362234
6512.30	66.28	0.0368119
6516.30	66.21	0.0372520
6520.30	66.15	0.0376265
6524.30	66.08	0.0379092
6528.30	66.01	0.0379345
6532.30	65.95	0.0377409
6536.30	65.88	0.0374867
6540.30	65.81	0.0372079
6544.30	65.75	0.0369986
6548.30	65.68	0.0368732
6552.30	65.61	0.0368399
6556.30	65.55	0.0368118
6560.30	65.48	0.0366789
6564.30	65.41	0.0365131
6568.30	65.35	0.0362154
6572.30	65.28	0.0359716
6576.30	65.21	0.0357366
6580.30	65.15	0.0355074
6584.30	65.08	0.0354163
6588.30	65.01	0.0353310
6592.30	64.95	0.0352954
6596.30	64.88	0.0352428
6600.30	64.81	0.0351598
6604.30	64.75	0.0350153
6608.30	64.68	0.0348377
6612.30	64.61	0.0347000
6616.30	64.55	0.0345933
6620.30	64.48	0.0345114
6624.30	64.41	0.0344639
6628.30	64.35	0.0343969
6632.30	64.28	0.0342925
6636.30	64.21	0.0342185
6640.30	64.15	0.0341787
6644.30	64.08	0.0340953
6648.30	64.01	0.0340500
6652.30	63.95	0.0340064
6656.30	63.88	0.0339095
6660.30	63.81	0.0338372
6664.30	63.75	0.0336921
6668.30	63.68	0.0335637
6672.30	63.61	0.0335148
6676.30	63.55	0.0333997
6680.30	63.48	0.0332816
6684.30	63.41	0.0331957
6688.30	63.35	0.0332370
6692.30	63.28	0.0332253
6696.30	63.21	0.0331830
6700.30	63.15	0.0330733
6704.30	63.08	0.0329593
6708.30	63.01	0.0328700
6712.30	62.95	0.0328337
6716.30	62.88	0.0327949
6720.30	62.81	0.0327931
6724.30	62.75	0.0327804
6728.30	62.68	0.0326571
6732.30	62.61	0.0325494
6736.30	62.55	0.0324338
6740.30	62.48	0.0322472
6744.30	62.41	0.0320423
6748.30	62.35	0.0318505
6752.30	62.28	0.0317334
6756.30	62.21	0.0316802
6760.30	62.15	0.0316796
6764.30	62.08	0.0317194
6768.30	62.01	0.0317850
6772.30	61.95	0.0317983
6776.30	61.88	0.0317688
6780.30	61.81	0.0316587
6784.30	61.75	0.0315497
6788.30	61.68	0.0313996
6792.30	61.61	0.0312706
6796.30	61.55	0.0311561
6800.30	61.48	0.0310069
6804.30	61.41	0.0309916
6808.30	61.35	0.0309942
6812.30	61.28	0.0310100
6816.30	61.21	0.0310905
6820.30	61.15	0.0310026
6824.30	61.08	0.0308463
6828.30	61.01	0.0307208
6832.30	60.95	0.0305760
6836.30	60.88	0.0304950
6840.30	60.81	0.0304891
6844.30	60.75	0.0304468
6848.30	60.68	0.0304565
6852.30	60.61	0.0304864
6856.30	60.55	0.0304392
6860.30	60.48	0.0303161
6864.30	60.41	0.0302118
6868.30	60.35	0.0300851
6872.30	60.28	0.0300185
6876.30	60.21	0.0299308
6880.30	60.15	0.0298666
6884.30	60.08	0.0298163
6888.30	60.01	0.0296902
6892.30	59.95	0.0296530
6896.30	59.88	0.0296504
6900.30	59.81	0.0296269
6904.30	59.75	0.0296463
6908.30	59.68	0.0296192
6912.30	59.61	0.0295507
6916.30	59.55	0.0294471
6920.30	59.48	0.0293075
6924.30	59.41	0.0292036
6928.30	59.35	0.0291021
6932.30	59.28	0.0290250
6936.30	59.21	0.0289935
6940.30	59.15	0.0289748
6944.30	59.08	0.0290053
6948.30	59.01	0.0289714
6952.30	58.95	0.0289732
6956.30	58.88	0.0289558
6960.30	58.81	0.0289137
6964.30	58.75	0.0289079
6968.30	58.68	0.0288911
6972.30	58.61	0.0288851
6976.30	58.55	0.0288057
6980.30	58.48	0.0286906
6984.30	58.41	0.0286119
6988.30	58.35	0.0285274
6992.30	58.28	0.0284864
6996.30	58.21	0.0284465
7000.30	58.15	0.0284075
7004.30	58.08	0.0283867
7008.30	58.01	0.0284005
7012.30	57.94	0.0283712
7016.30	57.88	0.0283178
7020.30	57.81	0.0282778
7024.30	57.75	0.0282574
7028.30	57.68	0.0281929
7032.30	57.61	0.0281481
7036.30	57.55	0.0281072
7040.30	57.48	0.0280619
7044.30	57.41	0.0280054
7048.30	57.35	0.0279566
7052.30	57.28	0.0279248
7056.30	57.21	0.0280129
7060.30	57.15	0.0279952
7064.30	57.08	0.0279306
7068.30	57.01	0.0278477
7072.30	56.95	0.0277470
7076.30	56.88	0.0277070
7080.30	56.81	0.0276748
7084.30	56.75	0.0276541
7088.30	56.68	0.0275870
7092.30	56.61	0.0275122
7096.30	56.55	0.0274795
7100.30	56.48	0.0274343
7104.30	56.41	0.0273763
7108.30	56.35	0.0272690
7112.30	56.28	0.0272179
7116.30	56.21	0.0271867
7120.30	56.14	0.0271386
7124.30	56.08	0.0270854
7128.30	56.01	0.0270196
7132.30	55.95	0.0270202
7136.30	55.88	0.0269855
7140.30	55.81	0.0269601
7144.30	55.75	0.0269616
7148.30	55.68	0.0269443
7152.30	55.61	0.0268959
7156.30	55.55	0.0268788
7160.30	55.48	0.0268356
7164.30	55.41	0.0267850
7168.30	55.35	0.0267274
7172.30	55.28	0.0267154
7176.30	55.21	0.0266821
7180.30	55.14	0.0266170
7184.30	55.08	0.0265748
7188.30	55.01	0.0265470
7192.30	54.94	0.0264972
7196.30	54.88	0.0264832
7200.30	54.81	0.0264151
7204.30	54.74	0.0263563
7208.30	54.68	0.0262993
7212.30	54.61	0.0262505
7216.30	54.54	0.0262356
7220.30	54.48	0.0261660
7224.30	54.41	0.0261233
7228.30	54.34	0.0260785
7232.30	54.28	0.0259980
7236.30	54.21	0.0259320
7240.30	54.15	0.0263259
7244.30	54.08	0.0266318
7248.30	54.01	0.0266693
7252.30	53.94	0.0265517
7256.30	53.88	0.0263742
7260.30	53.81	0.0262105
7264.30	53.74	0.0260361
7268.30	53.68	0.0259471
7272.30	53.61	0.0258510
7276.30	53.54	0.0257668
7280.30	53.48	0.0257113
7284.30	53.41	0.0256569
7288.30	53.34	0.0255967
7292.30	53.28	0.0255724
7296.30	53.21	0.0255058
7300.30	53.15	0.0254801
7304.30	53.08	0.0254627
7308.30	53.01	0.0254311
7312.30	52.94	0.0253873
7316.30	52.88	0.0253868
7320.30	52.81	0.0253805
7324.30	52.74	0.0253319
7328.30	52.68	0.0252774
7332.30	52.61	0.0252426
7336.30	52.54	0.0252408
7340.30	52.48	0.0251927
7344.30	52.41	0.0251697
7348.30	52.34	0.0251232
7352.30	52.28	0.0250690
7356.30	52.21	0.0250134
7360.30	52.14	0.0249787
7364.30	52.08	0.0249478
7368.30	52.01	0.0249062
7372.30	51.95	0.0248594
7376.30	51.88	0.0248054
7380.30	51.81	0.0247650
7384.30	51.75	0.0247171
7388.30	51.68	0.0246968
7392.30	51.61	0.0247193
7396.30	51.54	0.0247073
7400.30	51.48	0.0246823
7404.30	51.41	0.0246463
7408.30	51.34	0.0246123
7412.30	51.28	0.0245821
7416.30	51.21	0.0245884
7420.30	51.14	0.0245781
7424.30	51.08	0.0245677
7428.30	51.01	0.0245247
7432.30	50.94	0.0244697
7436.30	50.88	0.0244458
7440.30	50.81	0.0244051
7444.30	50.75	0.0243762
7448.30	50.68	0.0243298
7452.30	50.61	9.58284e-3
7456.30	50.57	0.0721716
7460.30	50.56	0.0811486
7464.30	50.74	0.470911
7468.30	50.94	1.80655
7472.30	50.89	1.96714
7476.30	50.80	1.90991
7480.30	50.71	1.83416
7484.30	50.65	1.78997
7488.30	50.60	1.83633
7492.30	50.56	1.90285
7496.30	50.46	2.10676
7500.30	50.15	1.33103
7504.30	49.94	0.753267
7508.30	49.80	0.470433
7512.30	49.69	0.302474
7516.30	49.60	0.215802
7520.30	49.51	0.150441
7524.30	49.44	0.112643
7528.30	49.36	0.0787491
7532.30	49.29	0.0571099
7536.30	49.22	0.0481564
7540.30	49.15	0.0422473
7544.30	49.08	0.0414987
7548.30	49.02	0.0399965
7552.30	48.95	0.0386116
7556.30	48.88	0.0373812
7560.30	48.81	0.0361793
7564.30	48.75	0.0351328
7568.30	48.68	0.0342318
7572.30	48.61	0.0334126
7576.30	48.55	0.0328699
7580.30	48.48	0.0323287
7584.30	48.41	0.0318273
7588.30	48.35	0.0314072
7592.30	48.28	0.0309888
7596.30	48.21	0.0305907
7600.30	48.15	0.0303004
7604.30	48.08	0.0300277
7608.30	48.01	0.0298605
7612.30	47.95	0.0296703
7616.30	47.88	0.0295210
7620.30	47.81	0.0293766
7624.30	47.75	0.0292414
7628.30	47.68	0.0291251
7632.30	47.61	0.0289547
7636.30	47.55	0.0288313
7640.30	47.48	0.0286910
7644.30	47.41	0.0285022
7648.30	47.34	0.0283070
7652.30	47.28	0.0280919
7656.30	47.21	0.0278627
7660.30	47.14	0.0276277
7664.30	47.08	0.0273982
7668.30	47.01	0.0271408
7672.30	46.95	0.0268665
7676.30	46.88	0.0266700
7680.30	46.81	0.0264923
7684.30	46.75	0.0262969
7688.30	46.68	0.0261509
7692.30	46.61	0.0260034
7696.30	46.54	0.0258628
7700.30	46.48	0.0257310
7704.30	46.41	0.0256267
7708.30	46.35	0.0255224
7712.30	46.28	0.0254589
7716.30	46.21	0.0253920
7720.30	46.14	0.0253582
7724.30	46.08	0.0253015
7728.30	46.01	0.0252661
7732.30	45.94	0.0252064
7736.30	45.88	0.0251404
7740.30	45.81	0.0251208
7744.30	45.74	0.0250693
7748.30	45.68	0.0250781
7752.30	45.61	0.0250735
7756.30	45.54	0.0250588
7760.30	45.48	0.0250619
7764.30	45.41	0.0250440
7768.30	45.34	0.0249977
7772.30	45.28	0.0249503
7776.30	45.21	0.0248990
7780.30	45.14	0.0247926
7784.30	45.08	0.0246990
7788.30	45.01	0.0246094
7792.30	44.94	0.0244428
7796.30	44.88	0.0242834
7800.30	44.81	0.0241048
7804.30	44.74	0.0240080
7808.30	44.68	0.0239365
7812.30	44.61	0.0237815
7816.30	44.54	0.0236507
7820.30	44.48	0.0234902
7824.30	44.41	0.0233651
7828.30	44.34	0.0231785
7832.30	44.28	0.0230334
7836.30	44.21	0.0228907
7840.30	44.14	0.0228043
7844.30	44.08	0.0226880
7848.30	44.01	0.0225908
7852.30	43.94	0.0224876
7856.30	43.88	0.0223854
7860.30	43.81	0.0222992
7864.30	43.74	0.0221678
7868.30	43.68	0.0221150
7872.30	43.61	0.0220255
7876.30	43.54	0.0219482
7880.30	43.48	0.0218744
7884.30	43.41	0.0217961
7888.30	43.34	0.0217538
7892.30	43.28	0.0216822
7896.30	43.21	0.0216983
7900.30	43.14	0.0216668
7904.30	43.08	0.0216338
7908.30	43.01	0.0215884
7912.30	42.94	0.0215521
7916.30	42.88	0.0215417
7920.30	42.81	0.0214952
7924.30	42.74	0.0214385
7928.30	42.68	0.0213836
7932.30	42.61	0.0212866
7936.30	42.54	0.0211677
7940.30	42.48	0.0211450
7944.30	42.41	0.0211240
7948.30	42.34	0.0210297
7952.30	42.28	0.0209799
7956.30	42.21	0.0209107
7960.30	42.14	0.0208722
7964.30	42.08	0.0207985
7968.30	42.01	0.0207405
7972.30	41.94	0.0207087
7976.30	41.88	0.0206140
7980.30	41.81	0.0205919
7984.30	41.74	0.0205589
7988.30	41.68	0.0204968
7992.30	41.61	0.0204549
7996.30	41.54	0.0203674
8000.30	41.48	0.0202829
8004.30	41.41	0.0202021
8008.30	41.34	0.0201902
8012.30	41.28	0.0201421
8016.30	41.21	0.0201377
8020.30	41.14	0.0201167
8024.30	41.08	0.0200503
8028.30	41.01	0.0199829
8032.30	40.94	0.0199224
8036.30	40.88	0.0198178
8040.30	40.81	0.0197483
8044.30	40.74	0.0197038
8048.30	40.68	0.0196371
8052.30	40.61	0.0195867
8056.30	40.54	0.0195664
8060.30	40.48	0.0195068
8064.30	40.41	0.0194996
8068.30	40.34	0.0194423
8072.30	40.28	0.0194270
8076.30	40.21	0.0193542
8080.30	40.14	0.0193158
8084.30	40.08	0.0192630
8088.30	40.01	0.0192411
8092.30	39.94	0.0191744
8096.30	39.88	0.0191376
8100.30	39.81	0.0191299
8104.30	39.74	0.0191213
8108.30	39.68	0.0190805
8112.30	39.61	0.0190324
8116.30	39.54	0.0190067
8120.30	39.47	0.0189746
8124.30	39.41	0.0189409
8128.30	39.34	0.0188920
8132.30	39.28	0.0188052
8136.30	39.21	0.0187519
8140.30	39.14	0.0186623
8144.30	39.08	0.0186139
8148.30	39.01	0.0185361
8152.30	38.94	0.0185378
8156.30	38.88	0.0184892
8160.30	38.81	0.0184359
8164.30	38.74	0.0184096
8168.30	38.68	0.0183531
8172.30	38.61	0.0182766
8176.30	38.54	0.0182409
8180.30	38.48	0.0182133
8184.30	38.41	0.0181907
8188.30	38.34	0.0181484
8192.30	38.28	0.0181366
8196.30	38.21	0.0181197
8200.30	38.14	0.0180440
8204.30	38.08	0.0180189
8208.30	38.01	0.0179972
8212.30	37.94	0.0179562
8216.30	37.87	0.0178853
8220.30	37.81	0.0178593
8224.30	37.74	0.0178662
8228.30	37.68	0.0178168
8232.30	37.61	0.0177744
8236.30	37.54	0.0177409
8240.30	37.48	0.0176960
8244.30	37.41	0.0176999
8248.30	37.34	0.0176520
8252.30	37.28	0.0175966
8256.30	37.21	0.0175494
8260.30	37.14	0.0175318
8264.30	37.08	0.0174598
8268.30	37.01	0.0174651
8272.30	36.94	0.0174238
8276.30	36.88	0.0173759
8280.30	36.81	0.0173524
8284.30	36.74	0.0173519
8288.30	36.68	0.0172912
8292.30	36.61	0.0172417
8296.30	36.54	0.0172103
8300.30	36.48	0.0172181
8304.30	36.41	0.0171819
8308.30	36.34	0.0171763
8312.30	36.28	0.0171669
8316.30	36.21	0.0171319
8320.30	36.14	0.0171243
8324.30	36.08	0.0170638
8328.30	36.01	0.0170243
8332.30	35.94	0.0170019
8336.30	35.87	0.0169435
8340.30	35.81	0.0169237
8344.30	35.74	0.0169429
8348.30	35.67	0.0169150
8352.30	35.61	0.0168617
8356.30	35.54	0.0168103
8360.30	35.47	0.0167659
8364.30	35.41	0.0167172
8368.30	35.34	0.0167288
8372.30	35.28	0.0167116
8376.30	35.21	0.0167186
8380.30	35.14	0.0167085
8384.30	35.07	0.0166835
8388.30	35.01	0.0166652
8392.30	34.94	0.0166666
8396.30	34.87	0.0166365
8400.30	34.81	0.0166126
8404.30	34.74	0.0165815
8408.30	34.68	0.0165517
8412.30	34.61	0.0165233
8416.30	34.54	0.0164926
8420.30	34.48	0.0164618
8424.30	34.41	0.0164483
8428.30	34.34	0.0163943
8432.30	34.27	0.0163590
8436.30	34.21	0.0163916
8440.30	34.14	0.0163500
8444.30	34.07	0.0163347
8448.30	34.01	0.0163398
8452.30	33.94	0.0162749
8456.30	33.87	0.0162369
8460.30	33.81	0.0162253
8464.30	33.74	0.0161803
8468.30	33.67	0.0161720
8472.30	33.61	0.0161464
8476.30	33.54	0.0161070
8480.30	33.48	0.0160916
8484.30	33.41	0.0160646
8488.30	33.34	0.0160404
8492.30	33.27	0.0160391
8496.30	33.21	0.0159967
8500.30	33.14	0.0159713
8504.30	33.07	0.0159325
8508.30	33.01	0.0159467
8512.30	32.94	0.0159433
8516.30	32.87	0.0158883
8520.30	32.81	0.0158955
8524.30	32.74	0.0158147
8528.30	32.67	0.0157958
8532.30	32.61	0.0158233
8536.30	32.54	0.0157810
8540.30	32.47	0.0157919
8544.30	32.41	0.0157603
8548.30	32.34	0.0157069
8552.30	32.27	0.0157009
8556.30	32.21	0.0156951
8560.30	32.14	0.0156597
8564.30	32.08	0.0156631
8568.30	32.01	0.0156230
8572.30	31.94	0.0156118
8576.30	31.87	0.0156045
8580.30	31.81	0.0155669
8584.30	31.74	0.0155287
8588.30	31.67	0.0155276
8592.30	31.61	0.0155241
8596.30	31.54	0.0154598
8600.30	31.47	0.0154213
8604.30	31.41	0.0154143
8608.30	31.34	0.0153618
8612.30	31.27	0.0153594
8616.30	31.21	0.0153141
8620.30	31.14	0.0153438
8624.30	31.07	0.0153260
8628.30	31.01	0.0153516
8632.30	30.94	0.0152723
8636.30	30.87	0.0152838
8640.30	30.81	0.0152784
8644.30	30.74	0.0152380
8648.30	30.67	0.0152489
8652.30	30.61	0.0152282
8656.30	30.54	0.0152116
8660.30	30.47	0.0152190
8664.30	30.41	0.0151617
8668.30	30.34	0.0151572
8672.30	30.27	0.0151086
8676.30	30.21	0.0151335
8680.30	30.14	0.0150740
8684.30	30.07	0.0150550
8688.30	30.01	0.0150620
8692.30	29.94	0.0150321
8696.30	29.87	0.0150035
8700.30	29.81	0.0149722
8704.30	29.74	0.0149604
8708.30	29.67	0.0149479
8712.30	29.61	0.0149226
8716.30	29.54	0.0148999
8720.30	29.47	0.0148885
8724.30	29.41	0.0148428
8728.30	29.34	0.0148399
8732.30	29.27	0.0148187
8736.30	29.21	0.0147912
8740.30	29.14	0.0147501
8744.30	29.07	0.0147280
8748.30	29.01	0.0147349
8752.30	28.94	0.0147317
8756.30	28.87	0.0147050
8760.30	28.81	0.0147253
8764.30	28.74	0.0147471
8768.30	28.67	0.0147304
8772.30	28.61	0.0146817
8776.30	28.54	0.0146412
8780.30	28.47	0.0146245
8784.30	28.41	0.0146133
8788.30	28.34	0.0145667
8792.30	28.27	0.0145082
8796.30	28.21	0.0144520
8800.30	28.14	0.0144950
8804.30	28.08	0.0144539
8808.30	28.01	0.0144243
8812.30	27.94	0.0144112
8816.30	27.87	0.0144234
8820.30	27.81	0.0144180
8824.30	27.74	0.0143823
8828.30	27.67	0.0143642
8832.30	27.61	0.0143596
8836.30	27.54	0.0143543
8840.30	27.47	0.0143616
8844.30	27.41	0.0143245
8848.30	27.34	0.0142870
8852.30	27.27	0.0142659
8856.30	27.21	0.0142842
8860.30	27.14	0.0142258
8864.30	27.07	0.0141977
8868.30	27.01	0.0141824
8872.30	26.94	0.0141973
8876.30	26.87	0.0141579
8880.30	26.81	0.0141630
8884.30	26.74	0.0141595
8888.30	26.67	0.0141410
8892.30	26.61	0.0140919
8896.30	26.54	0.0140730
8900.30	26.47	0.0140881
8904.30	26.41	0.0140526
8908.30	26.34	0.0139961
8912.30	26.27	0.0139893
8916.30	26.21	0.0139583
8920.30	26.14	0.0139309
8924.30	26.07	0.0138910
8928.30	26.01	0.0138788
8932.30	25.94	0.0138726
8936.30	25.87	0.0138628
8940.30	25.81	0.0138311
8944.30	25.74	0.0137784
8948.30	25.67	0.0137810
8952.30	25.61	0.0137865
8956.30	25.54	0.0137738
8960.30	25.47	0.0137599
8964.30	25.41	0.0137194
8968.30	25.34	0.0137383
8972.30	25.27	0.0137291
8976.30	25.21	0.0136850
8980.30	25.14	0.0137027
8984.30	25.07	0.0136743
8988.30	25.01	0.0136141
8992.30	24.94	0.0136340
8996.30	24.87	0.0136402
9000.30	24.81	0.0136500
9004.30	24.74	0.0136112
9008.30	24.67	0.0136015
9012.30	24.61	0.0136025
9016.30	24.54	0.0136005
9020.30	24.47	0.0135698
9024.30	24.41	0.0135331
9028.30	24.34	0.0134989
9032.30	24.27	0.0134663
9036.30	24.21	0.0134176
9040.30	24.14	0.0134216
9044.30	24.07	0.0133888
9048.30	24.01	0.0133450
9052.30	23.94	0.0133174
9056.30	23.87	0.0133127
9060.30	23.81	0.0133166
9064.30	23.74	0.0132950
9068.30	23.67	0.0132830
9072.30	23.61	0.0132978
9076.30	23.54	0.0132640
9080.30	23.47	0.0132218
9084.30	23.41	0.0132356
9088.30	23.34	0.0132278
9092.30	23.27	0.0132237
9096.30	23.21	0.0131632
9100.30	23.14	0.0131729
9104.30	23.07	0.0131383
9108.30	23.01	0.0131144
9112.30	22.94	0.0131081
9116.30	22.87	0.0131200
9120.30	22.81	0.0131147
9124.30	22.74	0.0131023
9128.30	22.67	0.0130408
9132.30	22.61	0.0130294
9136.30	22.54	0.0130139
9140.30	22.47	0.0129749
9144.30	22.41	0.0129896
9148.30	22.34	0.0129544
9152.30	22.27	0.0129433
9156.30	22.21	0.0129318
9160.30	22.14	0.0129180
9164.30	22.07	0.0129516
9168.30	22.01	0.0129562
9172.30	21.94	0.0129275
9176.30	21.87	0.0128883
9180.30	21.81	0.0128639
9184.30	21.74	0.0128200
9188.30	21.67	0.0128184
9192.30	21.61	0.0128548
9196.30	21.54	0.0128070
9200.30	21.47	0.0128144
9204.30	21.41	0.0127962
9208.30	21.34	0.0127639
9212.30	21.27	0.0127617
9216.30	21.21	0.0127710
9220.30	21.14	0.0127481
9224.30	21.07	0.0127114
9228.30	21.01	0.0126937
9232.30	20.94	0.0126693
9236.30	20.87	0.0126221
9240.30	20.81	0.0126509
9244.30	20.74	0.0126443
9248.30	20.67	0.0126440
9252.30	20.61	0.0126363
9256.30	20.54	0.0126279
9260.30	20.47	0.0125966
9264.30	20.41	0.0125886
9268.30	20.34	0.0125665
9272.30	20.27	0.0125222
9276.30	20.21	0.0125070
9280.30	20.14	0.0125185
9284.30	20.07	0.0125026
9288.30	20.01	0.0124727
9292.30	19.94	0.0124433
9296.30	19.87	0.0124426
9300.30	19.81	0.0124204
9304.30	19.74	0.0124418
9308.30	19.67	0.0123932
9312.30	19.61	0.0124256
9316.30	19.54	0.0123719
9320.30	19.47	0.0123806
9324.30	19.41	0.0123738
9328.30	19.34	0.0123862
9332.30	19.27	0.0123585
9336.30	19.21	0.0123473
9340.30	19.14	0.0123183
9344.30	19.07	0.0122612
9348.30	19.01	0.0122789
9352.30	18.94	0.0122282
9356.30	18.87	0.0121971
9360.30	18.81	0.0122177
9364.30	18.74	0.0122077
9368.30	18.67	0.0121919
9372.30	18.61	0.0121643
9376.30	18.54	0.0121914
9380.30	18.47	0.0121654
9384.30	18.41	0.0121566
9388.30	18.34	0.0121684
9392.30	18.27	0.0121448
9396.30	18.21	0.0121337
9400.30	18.14	0.0121056
9404.30	18.07	0.0120644
9408.30	18.01	0.0120680
9412.30	17.94	0.0120337
9416.30	17.87	0.0119983
9420.30	17.81	0.0120208
9424.30	17.74	0.0119979
9428.30	17.67	0.0120221
9432.30	17.61	0.0119647
9436.30	17.54	0.0119722
9440.30	17.47	0.0119364
9444.30	17.41	0.0119416
9448.30	17.34	0.0119039
9452.30	17.27	0.0118707
9456.30	17.21	0.0118725
9460.30	17.14	0.0118453
9464.30	17.07	0.0118155
9468.30	17.00	0.0118026
9472.30	16.94	0.0117726
9476.30	16.87	0.0117818
9480.30	16.81	0.0117783
9484.30	16.74	0.0117147
9488.30	16.67	0.0117258
9492.30	16.61	0.0117336
9496.30	16.54	0.0117313
9500.30	16.47	0.0116820
9504.30	16.41	0.0116426
9508.30	16.34	0.0116400
9512.30	16.27	0.0116789
9516.30	16.21	0.0116502
9520.30	16.14	0.0116131
9524.30	16.07	0.0115839
9528.30	16.01	0.0115956
9532.30	15.94	0.0115660
9536.30	15.87	0.0115452
9540.30	15.80	0.0115249
9544.30	15.74	0.0115585
9548.30	15.67	0.0115153
9552.30	15.60	0.0115072
9556.30	15.54	0.0115156
9560.30	15.47	0.0114853
9564.30	15.41	0.0114848
9568.30	15.34	0.0114121
9572.30	15.27	0.0114266
9576.30	15.20	0.0114170
9580.30	15.14	0.0114193
9584.30	15.07	0.0114575
9588.30	15.00	0.0114246
9592.30	14.94	0.0114160
9596.30	14.87	0.0113749
9600.30	14.81	0.0113650
9604.30	14.74	0.0113827
9608.30	14.67	0.0113292
9612.30	14.60	0.0112865
9616.30	14.54	0.0112981
9620.30	14.47	0.0112830
9624.30	14.41	0.0112518
9628.30	14.34	0.0112464
9632.30	14.27	0.0112402
9636.30	14.21	0.0112171
9640.30	14.14	0.0112147
9644.30	14.07	0.0111977
9648.30	14.01	0.0111835
9652.30	13.94	0.0112011
9656.30	13.87	0.0112051
9660.30	13.81	0.0111417
9664.30	13.74	0.0111484
9668.30	13.67	0.0111399
9672.30	13.61	0.0111615
9676.30	13.54	0.0111743
9680.30	13.47	0.0111795
9684.30	13.40	0.0111494
9688.30	13.34	0.0111314
9692.30	13.27	0.0110601
9696.30	13.21	0.0110605
9700.30	13.14	0.0110393
9704.30	13.07	0.0110278
9708.30	13.01	0.0110291
9712.30	12.94	0.0109924
9716.30	12.87	0.0109958
9720.30	12.80	0.0109670
9724.30	12.74	0.0109395
9728.30	12.67	0.0108998
9732.30	12.60	0.0109197
9736.30	12.54	0.0108881
9740.30	12.47	0.0109078
9744.30	12.41	0.0108953
9748.30	12.34	0.0109247
9752.30	12.27	0.0109399
9756.30	12.20	0.0109476
9760.30	12.14	0.0109080
9764.30	12.07	0.0108813
9768.30	12.00	0.0108477
9772.30	11.94	0.0108109
9776.30	11.87	0.0108336
9780.30	11.80	0.0108158
9784.30	11.74	0.0108250
9788.30	11.67	0.0107859
9792.30	11.61	0.0108090
9796.30	11.54	0.0107767
9800.30	11.47	0.0107967
9804.30	11.41	0.0107983
9808.30	11.34	0.0107535
9812.30	11.27	0.0107701
9816.30	11.20	0.0106965
9820.30	11.14	0.0106550
9824.30	11.07	0.0106111
9828.30	11.01	0.0106379
9832.30	10.94	0.0106548
9836.30	10.87	0.0106400
9840.30	10.80	0.0106723
9844.30	10.74	0.0106032
9848.30	10.67	0.0105926
9852.30	10.60	0.0106092
9856.30	10.54	0.0105925
9860.30	10.47	0.0105447
9864.30	10.41	0.0105236
9868.30	10.34	0.0105027
9872.30	10.27	0.0104722
9876.30	10.21	0.0104722
9880.30	10.14	0.0104500
9884.30	10.07	0.0104641
9888.30	10.00	0.0104438
9892.30	9.94	0.0103982
9896.30	9.87	0.0104155
9900.30	9.80	0.0103780
9904.30	9.74	0.0103246
9908.30	9.67	0.0103393
9912.30	9.60	0.0103317
9916.30	9.54	0.0103340
9920.30	9.47	0.0103215
9924.30	9.40	0.0103499
9928.30	9.34	0.0103246
9932.30	9.27	0.0103026
9936.30	9.20	0.0103035
9940.30	9.14	0.0102803
9944.30	9.07	0.0102775
9948.30	9.00	0.0102652
9952.30	8.94	0.0102609
9956.30	8.87	0.0102224
9960.30	8.81	0.0101977
9964.30	8.74	0.0102058
9968.30	8.67	0.0101858
9972.30	8.60	0.0101577
9976.30	8.54	0.0101546
9980.30	8.47	0.0101692
9984.30	8.40	0.0102283
9988.30	8.34	0.0102221
9992.30	8.27	0.0101803
9996.30	8.20	0.0101475
10000.3	8.14	0.0100999
10004.3	8.07	0.0100676
10008.3	8.00	0.0100760
10012.3	7.94	0.0100973
10016.3	7.87	0.0100686
10020.3	7.80	0.0100953
10024.3	7.74	0.0100652
10028.3	7.67	0.0100743
10032.3	7.61	0.0100956
10036.3	7.54	0.0101071
10040.3	7.47	0.0100551
10044.3	7.40	9.99798e-3
10048.3	7.34	9.96976e-3
10052.3	7.27	9.94630e-3
10056.3	7.20	9.90451e-3
10060.3	7.14	9.92143e-3
10064.3	7.07	9.90486e-3
10068.3	7.01	9.88500e-3
10072.3	6.94	9.84560e-3
10076.3	6.87	9.84671e-3
10080.3	6.80	9.83237e-3
10084.3	6.74	9.83304e-3
10088.3	6.67	9.83293e-3
10092.3	6.60	9.82551e-3
10096.3	6.54	9.84238e-3
10100.3	6.47	9.78449e-3
10104.3	6.40	9.75964e-3
10108.3	6.34	9.72820e-3
10112.3	6.27	9.73968e-3
10116.3	6.20	9.70475e-3
10120.3	6.14	9.71477e-3
10124.3	6.07	9.64790e-3
10128.3	6.01	9.65345e-3
10132.3	5.94	9.62652e-3
10136.3	5.87	9.59653e-3
10140.3	5.80	9.63077e-3
10144.3	5.74	9.63675e-3
10148.3	5.67	9.68823e-3
10152.3	5.60	9.68135e-3
10156.3	5.54	9.72121e-3
10160.3	5.47	9.74166e-3
10164.3	5.40	9.74160e-3
10168.3	5.34	9.71826e-3
10172.3	5.27	9.71997e-3
10176.3	5.21	9.68210e-3
10180.3	5.14	9.68089e-3
10184.3	5.07	9.58879e-3
10188.3	5.00	9.62131e-3
10192.3	4.94	9.59454e-3
10196.3	4.87	9.56611e-3
10200.3	4.80	9.55943e-3
10204.3	4.74	9.53194e-3
10208.3	4.67	9.49592e-3
10212.3	4.60	9.47798e-3
10216.3	4.54	9.46123e-3
10220.3	4.47	9.42465e-3
10224.3	4.40	9.41376e-3
10228.3	4.34	9.42331e-3
10232.3	4.27	9.36805e-3
10236.3	4.20	9.39426e-3
10240.3	4.14	9.39848e-3
10244.3	4.07	9.37319e-3
10248.3	4.00	9.37903e-3
10252.3	3.94	9.36470e-3
10256.3	3.87	9.37023e-3
10260.3	3.80	9.38466e-3
10264.3	3.74	9.36056e-3
10268.3	3.67	9.34732e-3
10272.3	3.61	9.31953e-3
10276.3	3.54	9.32195e-3
10280.3	3.47	9.33988e-3
10284.3	3.40	9.30820e-3
10288.3	3.34	9.27167e-3
10292.3	3.27	9.26072e-3
10296.3	3.20	9.29044e-3
10300.3	3.14	9.30457e-3
10304.3	3.07	9.29929e-3
10308.3	3.00	9.25728e-3
10312.3	2.94	9.27502e-3
10316.3	2.87	9.26757e-3
10320.3	2.80	9.28371e-3
10324.3	2.74	9.29041e-3
10328.3	2.67	9.30915e-3
10332.3	2.60	9.28040e-3
10336.3	2.54	9.27616e-3
10340.3	2.47	9.27279e-3
10344.3	2.41	9.24781e-3
10348.3	2.34	9.21770e-3
10352.3	2.27	9.19271e-3
10356.3	2.21	9.15398e-3
10360.3	2.14	9.15457e-3
10364.3	2.07	9.17478e-3
10368.3	2.00	9.14083e-3
10372.3	1.94	9.10917e-3
10376.3	1.87	9.10840e-3
10380.3	1.80	9.13069e-3
10384.3	1.74	9.15882e-3
10388.3	1.67	9.15705e-3
10392.3	1.60	9.21011e-3
10396.3	1.54	9.20494e-3
10400.3	1.47	9.16994e-3
10404.3	1.40	9.15136e-3
10408.3	1.34	9.12904e-3
10412.3	1.27	9.10813e-3
10416.3	1.20	9.10500e-3
10420.3	1.14	9.07769e-3
10424.3	1.07	9.07311e-3
10428.3	1.00	9.08427e-3
10432.3	0.94	9.02316e-3
10436.3	0.87	9.03736e-3
10440.3	0.80	9.03539e-3
10444.3	0.74	9.02804e-3
10448.3	0.67	9.02486e-3
10452.3	0.60	9.00628e-3
10456.3	0.54	9.05497e-3
10460.3	0.47	9.06831e-3
10464.3	0.40	9.05832e-3
10468.3	0.34	9.04233e-3
10472.3	0.27	9.04215e-3
10476.3	0.20	9.04750e-3
10480.3	0.14	9.01117e-3
10484.3	0.07	9.03530e-3
10488.3	0.01	9.03727e-3
10492.3	-0.06	9.02129e-3
10496.3	-0.13	8.98738e-3
10500.2	-0.19	9.01418e-3