File: Differential scanning calorimetry/12OCB Squalene/12OCB SqE wt fraction 150.txt
Filename	Sq12OCB550T150
Instrument name	DSC2A-00101 (192.168.10.4)
Operator	Yuma
rundate	2/8/2021
Sample name	Sq12OCB550T150
proceduresegments	Jump 100.00 °C; Isothermal 10.0 min; Jump 0.00 °C; Isothermal 5.0 min; Mark End of Cycle ; Ramp 5.00 °C/min to 100.00 °C; Mark End of Cycle ; Ramp 5.00 °C/min to 0.00 °C; Mark End of Cycle ; Ramp 5.00 °C/min to 100.00 °C; Mark End of Cycle ; Ramp 1.00 °C/min to 0.00 °C; Mark End of Cycle ; Ramp 5.00 °C/min to 100.00 °C; Mark End of Cycle ; Ramp 10.00 °C/min to 0.00 °C; Mark End of Cycle ; Ramp 10.00 °C/min to 100.00 °C; Mark End of Cycle ; Jump 0.00 °C; Mark End of Cycle
[step]
Ramp 1.00 °C/min to 0.00 °C
Time	Temperature	Heat Flow (Normalized)
s	°C	W/g
4500.30	98.94	-0.190829
4504.30	99.25	-0.235480
4508.30	99.44	-0.257861
4512.30	99.51	-0.158011
4516.30	99.52	-0.0817468
4520.30	99.49	-0.0332226
4524.30	99.45	-3.52770e-3
4528.30	99.40	0.0136616
4532.30	99.34	0.0236936
4536.30	99.28	0.0291455
4540.30	99.21	0.0320404
4544.30	99.15	0.0336528
4548.30	99.08	0.0343247
4552.30	99.01	0.0349493
4556.30	98.95	0.0354277
4560.30	98.88	0.0358598
4564.30	98.82	0.0362050
4568.30	98.75	0.0364640
4572.30	98.68	0.0366796
4576.30	98.62	0.0368279
4580.30	98.55	0.0369417
4584.30	98.48	0.0370013
4588.30	98.42	0.0370337
4592.30	98.35	0.0370563
4596.30	98.28	0.0370564
4600.30	98.22	0.0370384
4604.30	98.15	0.0370104
4608.30	98.08	0.0370045
4612.30	98.02	0.0370123
4616.30	97.95	0.0370308
4620.30	97.89	0.0369763
4624.30	97.82	0.0369495
4628.30	97.75	0.0369202
4632.30	97.68	0.0368726
4636.30	97.62	0.0368575
4640.30	97.55	0.0368049
4644.30	97.48	0.0368266
4648.30	97.42	0.0368410
4652.30	97.35	0.0368335
4656.30	97.29	0.0367594
4660.30	97.22	0.0366719
4664.30	97.15	0.0366334
4668.30	97.08	0.0365725
4672.30	97.02	0.0365562
4676.30	96.95	0.0365212
4680.30	96.88	0.0364907
4684.30	96.82	0.0364670
4688.30	96.75	0.0364435
4692.30	96.69	0.0364328
4696.30	96.62	0.0363909
4700.30	96.55	0.0364051
4704.30	96.48	0.0364044
4708.30	96.42	0.0363723
4712.30	96.35	0.0363146
4716.30	96.29	0.0363019
4720.30	96.22	0.0362920
4724.30	96.15	0.0362447
4728.30	96.09	0.0362484
4732.30	96.02	0.0362282
4736.30	95.95	0.0362360
4740.30	95.89	0.0362569
4744.30	95.82	0.0362527
4748.30	95.75	0.0362712
4752.30	95.69	0.0362814
4756.30	95.62	0.0362293
4760.30	95.55	0.0361735
4764.30	95.48	0.0361217
4768.30	95.42	0.0361062
4772.30	95.35	0.0360821
4776.30	95.28	0.0360278
4780.30	95.22	0.0360061
4784.30	95.15	0.0359610
4788.30	95.09	0.0359392
4792.30	95.02	0.0359528
4796.30	94.95	0.0359009
4800.30	94.89	0.0358547
4804.30	94.82	0.0358169
4808.30	94.75	0.0358098
4812.30	94.69	0.0358390
4816.30	94.62	0.0358708
4820.30	94.55	0.0358778
4824.30	94.49	0.0358909
4828.30	94.42	0.0359152
4832.30	94.35	0.0359408
4836.30	94.29	0.0359410
4840.30	94.22	0.0359160
4844.30	94.15	0.0359359
4848.30	94.08	0.0360279
4852.30	94.02	0.0360266
4856.30	93.95	0.0359066
4860.30	93.89	0.0358056
4864.30	93.82	0.0357245
4868.30	93.75	0.0356842
4872.30	93.69	0.0356776
4876.30	93.62	0.0356906
4880.30	93.55	0.0356898
4884.30	93.49	0.0357132
4888.30	93.42	0.0357613
4892.30	93.35	0.0357714
4896.30	93.29	0.0357496
4900.30	93.22	0.0357274
4904.30	93.15	0.0356859
4908.30	93.09	0.0356597
4912.30	93.02	0.0356102
4916.30	92.95	0.0355858
4920.30	92.89	0.0355982
4924.30	92.82	0.0356210
4928.30	92.75	0.0356686
4932.30	92.69	0.0356663
4936.30	92.62	0.0356007
4940.30	92.55	0.0355597
4944.30	92.49	0.0355162
4948.30	92.42	0.0354953
4952.30	92.35	0.0355302
4956.30	92.29	0.0355412
4960.30	92.22	0.0355518
4964.30	92.15	0.0355078
4968.30	92.09	0.0354649
4972.30	92.02	0.0354108
4976.30	91.95	0.0354173
4980.30	91.89	0.0354755
4984.30	91.82	0.0355222
4988.30	91.75	0.0355056
4992.30	91.69	0.0354796
4996.30	91.62	0.0354952
5000.30	91.55	0.0355064
5004.30	91.49	0.0355372
5008.30	91.42	0.0355729
5012.30	91.35	0.0355685
5016.30	91.28	0.0355762
5020.30	91.22	0.0355746
5024.30	91.15	0.0354769
5028.30	91.09	0.0353982
5032.30	91.02	0.0353312
5036.30	90.95	0.0353099
5040.30	90.89	0.0353044
5044.30	90.82	0.0353175
5048.30	90.75	0.0353013
5052.30	90.69	0.0353092
5056.30	90.62	0.0353094
5060.30	90.55	0.0353408
5064.30	90.49	0.0353920
5068.30	90.42	0.0354140
5072.30	90.35	0.0354309
5076.30	90.29	0.0354297
5080.30	90.22	0.0354046
5084.30	90.15	0.0353741
5088.30	90.09	0.0353937
5092.30	90.02	0.0354092
5096.30	89.95	0.0353850
5100.30	89.89	0.0353025
5104.30	89.82	0.0352605
5108.30	89.75	0.0352816
5112.30	89.69	0.0352891
5116.30	89.62	0.0352736
5120.30	89.55	0.0352445
5124.30	89.49	0.0352209
5128.30	89.42	0.0352509
5132.30	89.35	0.0353013
5136.30	89.29	0.0353839
5140.30	89.22	0.0354481
5144.30	89.15	0.0353898
5148.30	89.09	0.0353698
5152.30	89.02	0.0353665
5156.30	88.95	0.0353347
5160.30	88.89	0.0353164
5164.30	88.82	0.0353152
5168.30	88.75	0.0353344
5172.30	88.69	0.0353425
5176.30	88.62	0.0353648
5180.30	88.55	0.0353737
5184.30	88.49	0.0353544
5188.30	88.42	0.0353049
5192.30	88.35	0.0353206
5196.30	88.29	0.0353146
5200.30	88.22	0.0352791
5204.30	88.15	0.0352787
5208.30	88.09	0.0352702
5212.30	88.02	0.0352925
5216.30	87.95	0.0352869
5220.30	87.89	0.0352606
5224.30	87.82	0.0352639
5228.30	87.75	0.0352719
5232.30	87.69	0.0352597
5236.30	87.62	0.0353018
5240.30	87.55	0.0353923
5244.30	87.49	0.0354365
5248.30	87.42	0.0353976
5252.30	87.35	0.0353477
5256.30	87.29	0.0353395
5260.30	87.22	0.0352911
5264.30	87.15	0.0351991
5268.30	87.09	0.0351819
5272.30	87.02	0.0352321
5276.30	86.95	0.0352544
5280.30	86.89	0.0352260
5284.30	86.82	0.0352770
5288.30	86.75	0.0353274
5292.30	86.69	0.0353245
5296.30	86.62	0.0353826
5300.30	86.55	0.0353171
5304.30	86.49	0.0352407
5308.30	86.42	0.0351745
5312.30	86.35	0.0352277
5316.30	86.29	0.0352749
5320.30	86.22	0.0353334
5324.30	86.15	0.0353788
5328.30	86.09	0.0353674
5332.30	86.02	0.0353494
5336.30	85.95	0.0353094
5340.30	85.89	0.0353013
5344.30	85.82	0.0352720
5348.30	85.75	0.0351916
5352.30	85.69	0.0351275
5356.30	85.62	0.0351005
5360.30	85.55	0.0351138
5364.30	85.49	0.0350880
5368.30	85.42	0.0350575
5372.30	85.35	0.0350799
5376.30	85.29	0.0350970
5380.30	85.22	0.0351323
5384.30	85.15	0.0351887
5388.30	85.09	0.0352309
5392.30	85.02	0.0352475
5396.30	84.95	0.0352424
5400.30	84.89	0.0352642
5404.30	84.82	0.0352457
5408.30	84.75	0.0352642
5412.30	84.69	0.0352589
5416.30	84.62	0.0352376
5420.30	84.55	0.0352698
5424.30	84.49	0.0353090
5428.30	84.42	0.0352990
5432.30	84.36	0.0352625
5436.30	84.29	0.0351765
5440.30	84.22	0.0351477
5444.30	84.15	0.0351579
5448.30	84.09	0.0351787
5452.30	84.02	0.0351860
5456.30	83.95	0.0351744
5460.30	83.89	0.0352217
5464.30	83.82	0.0352584
5468.30	83.75	0.0352472
5472.30	83.69	0.0352455
5476.30	83.62	0.0352332
5480.30	83.55	0.0352070
5484.30	83.49	0.0351973
5488.30	83.42	0.0352452
5492.30	83.35	0.0352490
5496.30	83.29	0.0352353
5500.30	83.22	0.0352356
5504.30	83.15	0.0352139
5508.30	83.09	0.0351937
5512.30	83.02	0.0351873
5516.30	82.95	0.0351648
5520.30	82.89	0.0351350
5524.30	82.82	0.0351018
5528.30	82.75	0.0350992
5532.30	82.69	0.0350924
5536.30	82.62	0.0351204
5540.30	82.55	0.0351706
5544.30	82.49	0.0352017
5548.30	82.42	0.0351691
5552.30	82.35	0.0351665
5556.30	82.29	0.0351987
5560.30	82.22	0.0351546
5564.30	82.15	0.0351448
5568.30	82.09	0.0351742
5572.30	82.02	0.0351644
5576.30	81.95	0.0351024
5580.30	81.89	0.0350522
5584.30	81.82	0.0350708
5588.30	81.76	0.0350457
5592.30	81.69	0.0350180
5596.30	81.62	0.0350524
5600.30	81.55	0.0351346
5604.30	81.49	0.0351540
5608.30	81.42	0.0351275
5612.30	81.35	0.0351613
5616.30	81.29	0.0351781
5620.30	81.22	0.0352001
5624.30	81.15	0.0352099
5628.30	81.09	0.0351827
5632.30	81.02	0.0351342
5636.30	80.95	0.0350918
5640.30	80.89	0.0350617
5644.30	80.82	0.0350231
5648.30	80.75	0.0349881
5652.30	80.69	0.0349686
5656.30	80.62	0.0349434
5660.30	80.55	0.0349756
5664.30	80.49	0.0349783
5668.30	80.42	0.0350029
5672.30	80.35	0.0349663
5676.30	80.29	0.0350022
5680.30	80.22	0.0350348
5684.30	80.15	0.0350692
5688.30	80.09	0.0350713
5692.30	80.02	0.0350554
5696.30	79.95	0.0350338
5700.30	79.89	0.0350601
5704.30	79.82	0.0350805
5708.30	79.76	0.0350530
5712.30	79.69	0.0349939
5716.30	79.62	0.0349680
5720.30	79.56	0.0349621
5724.30	79.49	0.0349931
5728.30	79.42	0.0350303
5732.30	79.36	0.0350394
5736.30	79.29	0.0350553
5740.30	79.22	0.0350841
5744.30	79.15	0.0350815
5748.30	79.09	0.0350955
5752.30	79.02	0.0350829
5756.30	78.96	0.0350719
5760.30	78.89	0.0350660
5764.30	78.82	0.0350059
5768.30	78.76	0.0349914
5772.30	78.69	0.0350089
5776.30	78.62	0.0350464
5780.30	78.55	0.0350441
5784.30	78.49	0.0350292
5788.30	78.42	0.0350326
5792.30	78.35	0.0350364
5796.30	78.29	0.0350235
5800.30	78.22	0.0349898
5804.30	78.16	0.0349579
5808.30	78.09	0.0349452
5812.30	78.02	0.0349468
5816.30	77.96	0.0349166
5820.30	77.89	0.0349413
5824.30	77.82	0.0349865
5828.30	77.75	0.0350381
5832.30	77.69	0.0350619
5836.30	77.62	0.0350709
5840.30	77.55	0.0350566
5844.30	77.49	0.0350401
5848.30	77.42	0.0349763
5852.30	77.35	0.0349501
5856.30	77.29	0.0349750
5860.30	77.22	0.0349733
5864.30	77.16	0.0349369
5868.30	77.09	0.0348984
5872.30	77.02	0.0349118
5876.30	76.96	0.0349312
5880.30	76.89	0.0349465
5884.30	76.82	0.0349928
5888.30	76.75	0.0349858
5892.30	76.69	0.0349978
5896.30	76.62	0.0350139
5900.30	76.55	0.0350063
5904.30	76.49	0.0350185
5908.30	76.42	0.0349957
5912.30	76.36	0.0349481
5916.30	76.29	0.0349305
5920.30	76.22	0.0349343
5924.30	76.16	0.0349269
5928.30	76.09	0.0349006
5932.30	76.02	0.0349005
5936.30	75.96	0.0349011
5940.30	75.89	0.0349225
5944.30	75.82	0.0349037
5948.30	75.76	0.0348325
5952.30	75.69	0.0348442
5956.30	75.62	0.0348848
5960.30	75.55	0.0349475
5964.30	75.49	0.0349367
5968.30	75.42	0.0349140
5972.30	75.35	0.0349453
5976.30	75.29	0.0349751
5980.30	75.22	0.0350225
5984.30	75.15	0.0350352
5988.30	75.09	0.0350261
5992.30	75.02	0.0350623
5996.30	74.95	0.0350440
6000.30	74.89	0.0350181
6004.30	74.82	0.0349721
6008.30	74.75	0.0349389
6012.30	74.69	0.0348897
6016.30	74.62	0.0348789
6020.30	74.55	0.0348326
6024.30	74.49	0.0348019
6028.30	74.42	0.0348032
6032.30	74.36	0.0348322
6036.30	74.29	0.0348436
6040.30	74.22	0.0348001
6044.30	74.15	0.0348061
6048.30	74.09	0.0348086
6052.30	74.02	0.0348359
6056.30	73.95	0.0348131
6060.30	73.89	0.0349871
6064.30	73.82	0.0351399
6068.30	73.76	0.0348800
6072.30	73.69	0.0346632
6076.30	73.62	0.0345826
6080.30	73.56	0.0346148
6084.30	73.49	0.0346581
6088.30	73.42	0.0347465
6092.30	73.36	0.0348461
6096.30	73.29	0.0349349
6100.30	73.22	0.0349869
6104.30	73.15	0.0349968
6108.30	73.09	0.0349968
6112.30	73.02	0.0349798
6116.30	72.95	0.0349396
6120.30	72.89	0.0349298
6124.30	72.82	0.0349190
6128.30	72.75	0.0348929
6132.30	72.69	0.0349140
6136.30	72.62	0.0349345
6140.30	72.56	0.0349238
6144.30	72.49	0.0348822
6148.30	72.42	0.0348101
6152.30	72.35	0.0347583
6156.30	72.29	0.0347624
6160.30	72.22	0.0347864
6164.30	72.15	0.0348045
6168.30	72.09	0.0348561
6172.30	72.02	0.0349055
6176.30	71.96	0.0349596
6180.30	71.89	0.0349285
6184.30	71.82	0.0348970
6188.30	71.76	0.0348424
6192.30	71.69	0.0348469
6196.30	71.62	0.0348487
6200.30	71.55	0.0348388
6204.30	71.49	0.0348088
6208.30	71.42	0.0347996
6212.30	71.35	0.0348077
6216.30	71.29	0.0347944
6220.30	71.22	0.0348156
6224.30	71.15	0.0348173
6228.30	71.09	0.0348270
6232.30	71.02	0.0347936
6236.30	70.95	0.0347989
6240.30	70.89	0.0348225
6244.30	70.82	0.0348369
6248.30	70.75	0.0348185
6252.30	70.68	0.0350360
6256.30	70.62	0.0351663
6260.30	70.55	0.0351845
6264.30	70.48	0.0351146
6268.30	70.42	0.0350327
6272.30	70.35	0.0349530
6276.30	70.29	0.0348555
6280.30	70.22	0.0347727
6284.30	70.15	0.0346900
6288.30	70.09	0.0346611
6292.30	70.02	0.0346095
6296.30	69.95	0.0346295
6300.30	69.89	0.0346329
6304.30	69.82	0.0346557
6308.30	69.75	0.0346655
6312.30	69.69	0.0346786
6316.30	69.62	0.0346676
6320.30	69.56	0.0346754
6324.30	69.49	0.0346876
6328.30	69.42	0.0347088
6332.30	69.35	0.0347496
6336.30	69.29	0.0347637
6340.30	69.22	0.0347412
6344.30	69.15	0.0347313
6348.30	69.09	0.0347349
6352.30	69.02	0.0347433
6356.30	68.95	0.0347320
6360.30	68.89	0.0347264
6364.30	68.82	0.0347370
6368.30	68.76	0.0347647
6372.30	68.69	0.0345887
6376.30	68.63	0.0343001
6380.30	68.56	0.0341826
6384.30	68.49	0.0342177
6388.30	68.42	0.0343792
6392.30	68.36	0.0345570
6396.30	68.29	0.0347265
6400.30	68.22	0.0348149
6404.30	68.16	0.0348350
6408.30	68.09	0.0348485
6412.30	68.02	0.0348076
6416.30	67.96	0.0347500
6420.30	67.89	0.0347616
6424.30	67.82	0.0347691
6428.30	67.76	0.0347835
6432.30	67.69	0.0347778
6436.30	67.62	0.0347884
6440.30	67.56	0.0347977
6444.30	67.49	0.0347464
6448.30	67.42	0.0346945
6452.30	67.36	0.0346527
6456.30	67.29	0.0346968
6460.30	67.22	0.0347025
6464.30	67.15	0.0348000
6468.30	67.08	0.0351079
6472.30	67.02	0.0352583
6476.30	66.95	0.0352660
6480.30	66.88	0.0351458
6484.30	66.82	0.0349736
6488.30	66.75	0.0348239
6492.30	66.69	0.0347300
6496.30	66.62	0.0346435
6500.30	66.55	0.0345704
6504.30	66.49	0.0345515
6508.30	66.42	0.0345217
6512.30	66.36	0.0345613
6516.30	66.29	0.0345611
6520.30	66.22	0.0345970
6524.30	66.15	0.0346076
6528.30	66.09	0.0345902
6532.30	66.02	0.0345740
6536.30	65.95	0.0345746
6540.30	65.89	0.0345684
6544.30	65.82	0.0345702
6548.30	65.76	0.0345938
6552.30	65.69	0.0346197
6556.30	65.62	0.0346228
6560.30	65.56	0.0346383
6564.30	65.49	0.0346378
6568.30	65.42	0.0346338
6572.30	65.36	0.0346385
6576.30	65.29	0.0346401
6580.30	65.22	0.0346729
6584.30	65.16	0.0346943
6588.30	65.09	0.0346842
6592.30	65.02	0.0346950
6596.30	64.95	0.0346875
6600.30	64.89	0.0346756
6604.30	64.82	0.0346649
6608.30	64.76	0.0346523
6612.30	64.69	0.0346863
6616.30	64.62	0.0346796
6620.30	64.56	0.0346829
6624.30	64.49	0.0346957
6628.30	64.42	0.0346985
6632.30	64.36	0.0347044
6636.30	64.29	0.0346542
6640.30	64.22	0.0346753
6644.30	64.16	0.0346892
6648.30	64.09	0.0346790
6652.30	64.02	0.0346334
6656.30	63.95	0.0346132
6660.30	63.89	0.0346380
6664.30	63.82	0.0346477
6668.30	63.76	0.0346534
6672.30	63.69	0.0346434
6676.30	63.62	0.0346518
6680.30	63.56	0.0346384
6684.30	63.49	0.0346458
6688.30	63.42	0.0346554
6692.30	63.36	0.0346652
6696.30	63.29	0.0346546
6700.30	63.22	0.0346573
6704.30	63.16	0.0346577
6708.30	63.09	0.0346498
6712.30	63.02	0.0346445
6716.30	62.96	0.0346363
6720.30	62.89	0.0346507
6724.30	62.82	0.0346473
6728.30	62.76	0.0346609
6732.30	62.69	0.0346692
6736.30	62.62	0.0346683
6740.30	62.56	0.0346704
6744.30	62.49	0.0346433
6748.30	62.42	0.0346383
6752.30	62.36	0.0346475
6756.30	62.29	0.0346698
6760.30	62.22	0.0346557
6764.30	62.15	0.0346390
6768.30	62.09	0.0346213
6772.30	62.02	0.0346216
6776.30	61.96	0.0345980
6780.30	61.89	0.0345821
6784.30	61.82	0.0346140
6788.30	61.76	0.0345931
6792.30	61.69	0.0345932
6796.30	61.62	0.0345669
6800.30	61.56	0.0345655
6804.30	61.49	0.0345845
6808.30	61.42	0.0345855
6812.30	61.35	0.0345964
6816.30	61.29	0.0346033
6820.30	61.22	0.0345940
6824.30	61.16	0.0346023
6828.30	61.09	0.0345633
6832.30	61.02	0.0345514
6836.30	60.95	0.0345713
6840.30	60.89	0.0345848
6844.30	60.82	0.0345859
6848.30	60.76	0.0345868
6852.30	60.69	0.0345969
6856.30	60.62	0.0345729
6860.30	60.55	0.0345667
6864.30	60.49	0.0345472
6868.30	60.42	0.0345469
6872.30	60.35	0.0345579
6876.30	60.29	0.0345587
6880.30	60.22	0.0345763
6884.30	60.16	0.0345788
6888.30	60.09	0.0345732
6892.30	60.02	0.0345888
6896.30	59.96	0.0345899
6900.30	59.89	0.0345977
6904.30	59.82	0.0345879
6908.30	59.76	0.0345867
6912.30	59.69	0.0345940
6916.30	59.62	0.0346124
6920.30	59.55	0.0345866
6924.30	59.49	0.0345432
6928.30	59.42	0.0345343
6932.30	59.36	0.0345469
6936.30	59.29	0.0345564
6940.30	59.22	0.0345361
6944.30	59.16	0.0345387
6948.30	59.09	0.0345435
6952.30	59.02	0.0345512
6956.30	58.95	0.0345625
6960.30	58.89	0.0345616
6964.30	58.82	0.0345382
6968.30	58.75	0.0345366
6972.30	58.69	0.0345522
6976.30	58.62	0.0345452
6980.30	58.56	0.0345594
6984.30	58.49	0.0345643
6988.30	58.42	0.0345515
6992.30	58.36	0.0345454
6996.30	58.29	0.0345346
7000.30	58.22	0.0345222
7004.30	58.16	0.0345071
7008.30	58.09	0.0345307
7012.30	58.02	0.0345295
7016.30	57.96	0.0345509
7020.30	57.89	0.0345355
7024.30	57.82	0.0345531
7028.30	57.76	0.0345304
7032.30	57.69	0.0345188
7036.30	57.62	0.0345087
7040.30	57.56	0.0345091
7044.30	57.49	0.0345114
7048.30	57.42	0.0345094
7052.30	57.36	0.0345057
7056.30	57.29	0.0345242
7060.30	57.22	0.0345339
7064.30	57.15	0.0346089
7068.30	57.09	0.0346381
7072.30	57.02	0.0346222
7076.30	56.95	0.0345985
7080.30	56.89	0.0345632
7084.30	56.82	0.0345358
7088.30	56.76	0.0345242
7092.30	56.69	0.0345205
7096.30	56.62	0.0345104
7100.30	56.56	0.0345100
7104.30	56.49	0.0345178
7108.30	56.42	0.0345064
7112.30	56.36	0.0345718
7116.30	56.30	0.0342055
7120.30	56.23	0.0338649
7124.30	56.16	0.0338047
7128.30	56.10	0.0338909
7132.30	56.03	0.0340941
7136.30	55.96	0.0342969
7140.30	55.89	0.0344684
7144.30	55.83	0.0345808
7148.30	55.76	0.0346751
7152.30	55.69	0.0347228
7156.30	55.62	0.0347388
7160.30	55.56	0.0347343
7164.30	55.49	0.0347216
7168.30	55.42	0.0346946
7172.30	55.36	0.0346603
7176.30	55.29	0.0346584
7180.30	55.22	0.0346134
7184.30	55.15	0.0346193
7188.30	55.09	0.0346036
7192.30	55.02	0.0345897
7196.30	54.96	0.0345788
7200.30	54.89	0.0345530
7204.30	54.82	0.0344711
7208.30	54.76	0.0344291
7212.30	54.69	0.0344155
7216.30	54.62	0.0344077
7220.30	54.56	0.0343920
7224.30	54.49	0.0343729
7228.30	54.42	0.0343941
7232.30	54.35	0.0344283
7236.30	54.29	0.0344626
7240.30	54.22	0.0344946
7244.30	54.16	0.0345041
7248.30	54.09	0.0345055
7252.30	54.02	0.0344919
7256.30	53.96	0.0344799
7260.30	53.89	0.0344455
7264.30	53.82	0.0344331
7268.30	53.76	0.0344107
7272.30	53.69	0.0344103
7276.30	53.62	0.0344078
7280.30	53.55	0.0344151
7284.30	53.49	0.0344367
7288.30	53.42	0.0344301
7292.30	53.36	0.0344240
7296.30	53.29	0.0343940
7300.30	53.22	0.0344144
7304.30	53.16	0.0344375
7308.30	53.09	0.0344116
7312.30	53.02	0.0343935
7316.30	52.96	0.0343770
7320.30	52.89	0.0343968
7324.30	52.82	0.0344103
7328.30	52.76	0.0344102
7332.30	52.69	0.0344271
7336.30	52.62	0.0344018
7340.30	52.56	0.0344233
7344.30	52.49	0.0344411
7348.30	52.42	0.0344376
7352.30	52.36	0.0344281
7356.30	52.29	0.0344463
7360.30	52.22	0.0344525
7364.30	52.15	0.0344529
7368.30	52.09	0.0344589
7372.30	52.02	0.0344501
7376.30	51.95	0.0344570
7380.30	51.89	0.0344735
7384.30	51.82	0.0344539
7388.30	51.75	0.0344659
7392.30	51.69	0.0344633
7396.30	51.62	0.0344507
7400.30	51.55	0.0344261
7404.30	51.49	0.0344107
7408.30	51.42	0.0344007
7412.30	51.35	0.0343937
7416.30	51.29	0.0343773
7420.30	51.22	0.0343793
7424.30	51.16	0.0344064
7428.30	51.09	0.0343992
7432.30	51.02	0.0343548
7436.30	50.95	0.0343320
7440.30	50.89	0.0343289
7444.30	50.82	0.0343411
7448.30	50.75	0.0343870
7452.30	50.69	0.0343785
7456.30	50.62	0.0343896
7460.30	50.56	0.0343924
7464.30	50.49	0.0343314
7468.30	50.42	0.0342704
7472.30	50.36	0.0342505
7476.30	50.29	0.0342727
7480.30	50.22	0.0343294
7484.30	50.16	0.0343589
7488.30	50.09	0.0343622
7492.30	50.02	0.0344090
7496.30	49.96	0.0344543
7500.30	49.89	0.0344912
7504.30	49.82	0.0341889
7508.30	49.76	0.0407210
7512.30	49.72	0.0176627
7516.30	49.84	0.170508
7520.30	50.04	0.541498
7524.30	50.31	0.960503
7528.30	50.68	1.69160
7532.30	50.84	2.21251
7536.30	50.62	2.12735
7540.30	50.24	1.67467
7544.30	49.88	1.22197
7548.30	49.58	0.857471
7552.30	49.35	0.583474
7556.30	49.18	0.405769
7560.30	49.04	0.290815
7564.30	48.93	0.215361
7568.30	48.84	0.166791
7572.30	48.75	0.134547
7576.30	48.67	0.112550
7580.30	48.59	0.0985516
7584.30	48.52	0.0887252
7588.30	48.45	0.0812727
7592.30	48.38	0.0764977
7596.30	48.31	0.0725547
7600.30	48.24	0.0699868
7604.30	48.18	0.0681214
7608.30	48.11	0.0666795
7612.30	48.04	0.0655313
7616.30	47.97	0.0644735
7620.30	47.91	0.0635304
7624.30	47.84	0.0625795
7628.30	47.77	0.0617149
7632.30	47.71	0.0608729
7636.30	47.64	0.0600780
7640.30	47.57	0.0593589
7644.30	47.50	0.0587773
7648.30	47.44	0.0581906
7652.30	47.37	0.0575824
7656.30	47.30	0.0568792
7660.30	47.23	0.0563866
7664.30	47.17	0.0558588
7668.30	47.10	0.0551925
7672.30	47.03	0.0545897
7676.30	46.97	0.0540810
7680.30	46.90	0.0536585
7684.30	46.83	0.0532870
7688.30	46.77	0.0530088
7692.30	46.70	0.0527276
7696.30	46.63	0.0524816
7700.30	46.57	0.0522540
7704.30	46.50	0.0520012
7708.30	46.43	0.0517640
7712.30	46.37	0.0515005
7716.30	46.30	0.0512804
7720.30	46.23	0.0510703
7724.30	46.17	0.0508435
7728.30	46.10	0.0506220
7732.30	46.03	0.0503786
7736.30	45.97	0.0501516
7740.30	45.90	0.0499553
7744.30	45.83	0.0497088
7748.30	45.76	0.0495715
7752.30	45.70	0.0494489
7756.30	45.63	0.0492961
7760.30	45.56	0.0491615
7764.30	45.50	0.0490547
7768.30	45.43	0.0488502
7772.30	45.36	0.0484506
7776.30	45.30	0.0481258
7780.30	45.23	0.0478920
7784.30	45.17	0.0476902
7788.30	45.10	0.0475645
7792.30	45.03	0.0474146
7796.30	44.96	0.0472797
7800.30	44.90	0.0471486
7804.30	44.83	0.0469893
7808.30	44.76	0.0468098
7812.30	44.70	0.0466586
7816.30	44.63	0.0465308
7820.30	44.56	0.0464073
7824.30	44.50	0.0462807
7828.30	44.43	0.0461490
7832.30	44.36	0.0460579
7836.30	44.30	0.0459717
7840.30	44.23	0.0458484
7844.30	44.16	0.0457285
7848.30	44.10	0.0455827
7852.30	44.03	0.0454678
7856.30	43.96	0.0453013
7860.30	43.90	0.0451660
7864.30	43.83	0.0450413
7868.30	43.76	0.0448749
7872.30	43.70	0.0447332
7876.30	43.63	0.0446525
7880.30	43.56	0.0446015
7884.30	43.49	0.0445741
7888.30	43.43	0.0444864
7892.30	43.36	0.0443304
7896.30	43.30	0.0441936
7900.30	43.23	0.0440248
7904.30	43.16	0.0438746
7908.30	43.09	0.0437507
7912.30	43.03	0.0436424
7916.30	42.96	0.0435382
7920.30	42.89	0.0434228
7924.30	42.83	0.0433777
7928.30	42.76	0.0433224
7932.30	42.70	0.0432286
7936.30	42.63	0.0431189
7940.30	42.56	0.0430429
7944.30	42.49	0.0429816
7948.30	42.43	0.0429076
7952.30	42.36	0.0428257
7956.30	42.29	0.0427226
7960.30	42.23	0.0426413
7964.30	42.16	0.0425316
7968.30	42.09	0.0424449
7972.30	42.03	0.0423315
7976.30	41.96	0.0422161
7980.30	41.89	0.0421111
7984.30	41.83	0.0420607
7988.30	41.76	0.0419575
7992.30	41.69	0.0418573
7996.30	41.63	0.0417666
8000.30	41.56	0.0417022
8004.30	41.49	0.0416147
8008.30	41.43	0.0415418
8012.30	41.36	0.0414483
8016.30	41.29	0.0413854
8020.30	41.23	0.0413465
8024.30	41.16	0.0412940
8028.30	41.09	0.0412635
8032.30	41.03	0.0411725
8036.30	40.96	0.0410570
8040.30	40.89	0.0409612
8044.30	40.82	0.0408668
8048.30	40.76	0.0407601
8052.30	40.69	0.0406682
8056.30	40.62	0.0405882
8060.30	40.56	0.0405050
8064.30	40.49	0.0404542
8068.30	40.42	0.0403810
8072.30	40.36	0.0402778
8076.30	40.29	0.0402045
8080.30	40.23	0.0401275
8084.30	40.16	0.0400139
8088.30	40.09	0.0399212
8092.30	40.03	0.0398777
8096.30	39.96	0.0398080
8100.30	39.89	0.0397724
8104.30	39.83	0.0397378
8108.30	39.76	0.0396976
8112.30	39.69	0.0396221
8116.30	39.63	0.0395744
8120.30	39.56	0.0395363
8124.30	39.49	0.0395181
8128.30	39.42	0.0394670
8132.30	39.36	0.0394220
8136.30	39.29	0.0393923
8140.30	39.22	0.0393115
8144.30	39.16	0.0392754
8148.30	39.09	0.0391842
8152.30	39.02	0.0390689
8156.30	38.96	0.0389792
8160.30	38.89	0.0389270
8164.30	38.82	0.0388871
8168.30	38.76	0.0388568
8172.30	38.69	0.0387902
8176.30	38.62	0.0387297
8180.30	38.56	0.0386702
8184.30	38.49	0.0385521
8188.30	38.42	0.0385205
8192.30	38.36	0.0384554
8196.30	38.29	0.0383876
8200.30	38.22	0.0383785
8204.30	38.16	0.0383062
8208.30	38.09	0.0382454
8212.30	38.02	0.0381921
8216.30	37.96	0.0381715
8220.30	37.89	0.0381264
8224.30	37.82	0.0381169
8228.30	37.76	0.0380575
8232.30	37.69	0.0380055
8236.30	37.62	0.0379461
8240.30	37.56	0.0378895
8244.30	37.49	0.0378354
8248.30	37.42	0.0378004
8252.30	37.36	0.0377762
8256.30	37.29	0.0377518
8260.30	37.22	0.0377235
8264.30	37.16	0.0376678
8268.30	37.09	0.0376332
8272.30	37.02	0.0375885
8276.30	36.96	0.0375183
8280.30	36.89	0.0374872
8284.30	36.82	0.0374558
8288.30	36.76	0.0374117
8292.30	36.69	0.0373479
8296.30	36.62	0.0373063
8300.30	36.56	0.0372512
8304.30	36.49	0.0372214
8308.30	36.42	0.0371751
8312.30	36.36	0.0370895
8316.30	36.29	0.0370275
8320.30	36.22	0.0369946
8324.30	36.16	0.0369910
8328.30	36.09	0.0369304
8332.30	36.02	0.0368846
8336.30	35.96	0.0368879
8340.30	35.89	0.0368954
8344.30	35.82	0.0368420
8348.30	35.75	0.0367594
8352.30	35.69	0.0369123
8356.30	35.62	0.0368601
8360.30	35.56	0.0366455
8364.30	35.49	0.0364356
8368.30	35.42	0.0362753
8372.30	35.36	0.0361880
8376.30	35.29	0.0361654
8380.30	35.22	0.0360898
8384.30	35.16	0.0360374
8388.30	35.09	0.0360460
8392.30	35.02	0.0360839
8396.30	34.96	0.0361451
8400.30	34.89	0.0361752
8404.30	34.82	0.0361526
8408.30	34.76	0.0361238
8412.30	34.69	0.0361170
8416.30	34.62	0.0361046
8420.30	34.56	0.0360940
8424.30	34.49	0.0360386
8428.30	34.42	0.0359866
8432.30	34.36	0.0359455
8436.30	34.29	0.0359277
8440.30	34.22	0.0358624
8444.30	34.16	0.0357753
8448.30	34.09	0.0357337
8452.30	34.02	0.0357500
8456.30	33.96	0.0357319
8460.30	33.89	0.0357427
8464.30	33.82	0.0357224
8468.30	33.76	0.0356341
8472.30	33.69	0.0356001
8476.30	33.62	0.0356181
8480.30	33.55	0.0356172
8484.30	33.49	0.0355800
8488.30	33.42	0.0355241
8492.30	33.35	0.0354701
8496.30	33.29	0.0354329
8500.30	33.22	0.0354071
8504.30	33.15	0.0353481
8508.30	33.09	0.0353204
8512.30	33.02	0.0353180
8516.30	32.96	0.0352701
8520.30	32.89	0.0352248
8524.30	32.82	0.0352300
8528.30	32.75	0.0352377
8532.30	32.69	0.0351582
8536.30	32.62	0.0350831
8540.30	32.56	0.0350322
8544.30	32.49	0.0349498
8548.30	32.42	0.0349399
8552.30	32.36	0.0349317
8556.30	32.29	0.0349728
8560.30	32.22	0.0349687
8564.30	32.16	0.0349797
8568.30	32.09	0.0349560
8572.30	32.02	0.0348731
8576.30	31.96	0.0347784
8580.30	31.89	0.0347554
8584.30	31.82	0.0348388
8588.30	31.75	0.0348927
8592.30	31.69	0.0349030
8596.30	31.62	0.0348885
8600.30	31.55	0.0348100
8604.30	31.49	0.0347809
8608.30	31.42	0.0347707
8612.30	31.35	0.0347058
8616.30	31.29	0.0346431
8620.30	31.22	0.0346096
8624.30	31.16	0.0345686
8628.30	31.09	0.0344755
8632.30	31.02	0.0344785
8636.30	30.96	0.0344593
8640.30	30.89	0.0344800
8644.30	30.82	0.0345029
8648.30	30.75	0.0345061
8652.30	30.69	0.0344591
8656.30	30.62	0.0343667
8660.30	30.55	0.0343152
8664.30	30.49	0.0343332
8668.30	30.42	0.0343077
8672.30	30.35	0.0343098
8676.30	30.29	0.0343105
8680.30	30.22	0.0343629
8684.30	30.15	0.0343293
8688.30	30.09	0.0342950
8692.30	30.02	0.0342536
8696.30	29.96	0.0341621
8700.30	29.89	0.0341095
8704.30	29.82	0.0340733
8708.30	29.75	0.0340874
8712.30	29.69	0.0341348
8716.30	29.62	0.0341317
8720.30	29.55	0.0340976
8724.30	29.49	0.0341155
8728.30	29.42	0.0340933
8732.30	29.35	0.0340099
8736.30	29.29	0.0340536
8740.30	29.22	0.0339871
8744.30	29.15	0.0339382
8748.30	29.09	0.0338883
8752.30	29.02	0.0338258
8756.30	28.95	0.0337580
8760.30	28.89	0.0336437
8764.30	28.82	0.0337340
8768.30	28.75	0.0339991
8772.30	28.68	0.0339924
8776.30	28.62	0.0339515
8780.30	28.55	0.0338590
8784.30	28.49	0.0336040
8788.30	28.42	0.0334636
8792.30	28.36	0.0333475
8796.30	28.29	0.0333605
8800.30	28.22	0.0333813
8804.30	28.15	0.0334676
8808.30	28.09	0.0334873
8812.30	28.02	0.0335064
8816.30	27.95	0.0335470
8820.30	27.89	0.0335887
8824.30	27.82	0.0336016
8828.30	27.75	0.0335498
8832.30	27.69	0.0334069
8836.30	27.62	0.0333186
8840.30	27.55	0.0332727
8844.30	27.49	0.0332826
8848.30	27.42	0.0332934
8852.30	27.35	0.0333181
8856.30	27.29	0.0333404
8860.30	27.22	0.0333501
8864.30	27.15	0.0333548
8868.30	27.09	0.0333453
8872.30	27.02	0.0333403
8876.30	26.95	0.0333248
8880.30	26.89	0.0333180
8884.30	26.82	0.0332988
8888.30	26.75	0.0332721
8892.30	26.69	0.0332764
8896.30	26.62	0.0332856
8900.30	26.55	0.0332701
8904.30	26.49	0.0332252
8908.30	26.42	0.0331841
8912.30	26.35	0.0331733
8916.30	26.29	0.0331357
8920.30	26.22	0.0330972
8924.30	26.15	0.0330600
8928.30	26.08	0.0330659
8932.30	26.02	0.0331377
8936.30	25.95	0.0331739
8940.30	25.89	0.0330372
8944.30	25.82	0.0330010
8948.30	25.75	0.0330829
8952.30	25.68	0.0330258
8956.30	25.62	0.0329729
8960.30	25.56	0.0328288
8964.30	25.49	0.0326255
8968.30	25.42	0.0325117
8972.30	25.35	0.0324513
8976.30	25.29	0.0325948
8980.30	25.22	0.0327281
8984.30	25.15	0.0327819
8988.30	25.09	0.0327609
8992.30	25.02	0.0328019
8996.30	24.95	0.0328211
9000.30	24.89	0.0327228
9004.30	24.82	0.0326050
9008.30	24.75	0.0326350
9012.30	24.69	0.0327155
9016.30	24.62	0.0326818
9020.30	24.55	0.0325746
9024.30	24.49	0.0325317
9028.30	24.42	0.0326351
9032.30	24.35	0.0325590
9036.30	24.29	0.0324752
9040.30	24.22	0.0325661
9044.30	24.15	0.0327569
9048.30	24.08	0.0328291
9052.30	24.01	0.0327964
9056.30	23.95	0.0326639
9060.30	23.88	0.0325356
9064.30	23.82	0.0324300
9068.30	23.75	0.0323595
9072.30	23.68	0.0322838
9076.30	23.62	0.0322596
9080.30	23.55	0.0322639
9084.30	23.48	0.0322581
9088.30	23.42	0.0322416
9092.30	23.35	0.0322351
9096.30	23.29	0.0322125
9100.30	23.22	0.0322003
9104.30	23.15	0.0321953
9108.30	23.09	0.0321822
9112.30	23.02	0.0321957
9116.30	22.95	0.0321835
9120.30	22.89	0.0321645
9124.30	22.82	0.0321497
9128.30	22.75	0.0321334
9132.30	22.69	0.0321019
9136.30	22.62	0.0320833
9140.30	22.55	0.0320665
9144.30	22.49	0.0320316
9148.30	22.42	0.0320447
9152.30	22.35	0.0320137
9156.30	22.29	0.0320080
9160.30	22.22	0.0320080
9164.30	22.15	0.0320065
9168.30	22.09	0.0319946
9172.30	22.02	0.0319855
9176.30	21.95	0.0319567
9180.30	21.89	0.0319675
9184.30	21.82	0.0319761
9188.30	21.75	0.0319360
9192.30	21.69	0.0319044
9196.30	21.62	0.0318792
9200.30	21.55	0.0318356
9204.30	21.49	0.0318415
9208.30	21.42	0.0318387
9212.30	21.35	0.0318313
9216.30	21.29	0.0318127
9220.30	21.22	0.0317944
9224.30	21.15	0.0317932
9228.30	21.08	0.0318032
9232.30	21.02	0.0317879
9236.30	20.95	0.0317521
9240.30	20.89	0.0317753
9244.30	20.82	0.0315494
9248.30	20.75	0.0314582
9252.30	20.69	0.0315687
9256.30	20.62	0.0316201
9260.30	20.55	0.0316252
9264.30	20.49	0.0316375
9268.30	20.42	0.0315908
9272.30	20.35	0.0315739
9276.30	20.29	0.0315623
9280.30	20.22	0.0315616
9284.30	20.15	0.0315565
9288.30	20.09	0.0314951
9292.30	20.02	0.0314652
9296.30	19.95	0.0314621
9300.30	19.89	0.0314421
9304.30	19.82	0.0314135
9308.30	19.75	0.0314155
9312.30	19.68	0.0314004
9316.30	19.62	0.0314009
9320.30	19.55	0.0313966
9324.30	19.49	0.0313937
9328.30	19.42	0.0313785
9332.30	19.35	0.0313715
9336.30	19.29	0.0313499
9340.30	19.22	0.0313336
9344.30	19.15	0.0313646
9348.30	19.08	0.0313569
9352.30	19.02	0.0313383
9356.30	18.95	0.0313207
9360.30	18.88	0.0312839
9364.30	18.82	0.0312671
9368.30	18.75	0.0312532
9372.30	18.69	0.0312076
9376.30	18.62	0.0311718
9380.30	18.55	0.0311628
9384.30	18.48	0.0311633
9388.30	18.42	0.0311442
9392.30	18.35	0.0311411
9396.30	18.29	0.0311305
9400.30	18.22	0.0311127
9404.30	18.15	0.0311122
9408.30	18.09	0.0310996
9412.30	18.02	0.0310982
9416.30	17.95	0.0310775
9420.30	17.89	0.0310716
9424.30	17.82	0.0310761
9428.30	17.75	0.0310795
9432.30	17.69	0.0310598
9436.30	17.62	0.0310585
9440.30	17.55	0.0310350
9444.30	17.49	0.0310250
9448.30	17.42	0.0310165
9452.30	17.35	0.0310293
9456.30	17.29	0.0310272
9460.30	17.22	0.0309888
9464.30	17.15	0.0309641
9468.30	17.09	0.0309485
9472.30	17.02	0.0309215
9476.30	16.95	0.0309017
9480.30	16.89	0.0308854
9484.30	16.82	0.0308811
9488.30	16.75	0.0308826
9492.30	16.69	0.0308520
9496.30	16.62	0.0308482
9500.30	16.55	0.0308333
9504.30	16.48	0.0308238
9508.30	16.42	0.0307838
9512.30	16.35	0.0307842
9516.30	16.28	0.0307736
9520.30	16.22	0.0307538
9524.30	16.15	0.0307330
9528.30	16.09	0.0307081
9532.30	16.02	0.0306964
9536.30	15.95	0.0306887
9540.30	15.88	0.0306776
9544.30	15.82	0.0306625
9548.30	15.75	0.0306241
9552.30	15.68	0.0306256
9556.30	15.62	0.0306226
9560.30	15.55	0.0306454
9564.30	15.49	0.0306557
9568.30	15.42	0.0306384
9572.30	15.35	0.0306441
9576.30	15.28	0.0306367
9580.30	15.22	0.0305789
9584.30	15.15	0.0305430
9588.30	15.08	0.0305344
9592.30	15.02	0.0305103
9596.30	14.95	0.0304802
9600.30	14.89	0.0304707
9604.30	14.82	0.0304812
9608.30	14.75	0.0304708
9612.30	14.69	0.0304443
9616.30	14.62	0.0304422
9620.30	14.55	0.0304423
9624.30	14.48	0.0304263
9628.30	14.42	0.0304105
9632.30	14.35	0.0304043
9636.30	14.28	0.0304232
9640.30	14.22	0.0304258
9644.30	14.15	0.0304025
9648.30	14.08	0.0303679
9652.30	14.02	0.0303770
9656.30	13.95	0.0303527
9660.30	13.88	0.0303164
9664.30	13.82	0.0303189
9668.30	13.75	0.0302822
9672.30	13.68	0.0302855
9676.30	13.62	0.0302626
9680.30	13.55	0.0302620
9684.30	13.48	0.0302654
9688.30	13.42	0.0302663
9692.30	13.35	0.0302626
9696.30	13.28	0.0302064
9700.30	13.22	0.0301783
9704.30	13.15	0.0301578
9708.30	13.09	0.0301655
9712.30	13.02	0.0301665
9716.30	12.95	0.0301811
9720.30	12.88	0.0301691
9724.30	12.82	0.0301472
9728.30	12.75	0.0301301
9732.30	12.68	0.0301255
9736.30	12.62	0.0301069
9740.30	12.55	0.0300839
9744.30	12.48	0.0300581
9748.30	12.42	0.0300139
9752.30	12.35	0.0300114
9756.30	12.28	0.0299939
9760.30	12.22	0.0300048
9764.30	12.15	0.0300024
9768.30	12.09	0.0300052
9772.30	12.02	0.0300128
9776.30	11.95	0.0300109
9780.30	11.89	0.0300080
9784.30	11.82	0.0300333
9788.30	11.75	0.0300268
9792.30	11.69	0.0299975
9796.30	11.62	0.0299793
9800.30	11.55	0.0299959
9804.30	11.48	0.0299886
9808.30	11.42	0.0299700
9812.30	11.35	0.0299598
9816.30	11.28	0.0299309
9820.30	11.22	0.0299099
9824.30	11.15	0.0298788
9828.30	11.09	0.0298573
9832.30	11.02	0.0298434
9836.30	10.95	0.0298226
9840.30	10.88	0.0298160
9844.30	10.82	0.0298021
9848.30	10.75	0.0297802
9852.30	10.68	0.0297586
9856.30	10.62	0.0297552
9860.30	10.55	0.0297474
9864.30	10.48	0.0297204
9868.30	10.42	0.0297164
9872.30	10.35	0.0296985
9876.30	10.28	0.0296979
9880.30	10.22	0.0296871
9884.30	10.15	0.0296862
9888.30	10.08	0.0296756
9892.30	10.02	0.0296804
9896.30	9.95	0.0296544
9900.30	9.88	0.0296695
9904.30	9.82	0.0296611
9908.30	9.75	0.0296427
9912.30	9.68	0.0296317
9916.30	9.62	0.0296191
9920.30	9.55	0.0296313
9924.30	9.48	0.0296332
9928.30	9.42	0.0296175
9932.30	9.35	0.0296000
9936.30	9.28	0.0295988
9940.30	9.22	0.0295845
9944.30	9.15	0.0295654
9948.30	9.08	0.0295372
9952.30	9.02	0.0295343
9956.30	8.95	0.0295282
9960.30	8.88	0.0295042
9964.30	8.82	0.0294818
9968.30	8.75	0.0294600
9972.30	8.68	0.0294417
9976.30	8.62	0.0294307
9980.30	8.55	0.0294168
9984.30	8.48	0.0294207
9988.30	8.42	0.0294188
9992.30	8.35	0.0294268
9996.30	8.28	0.0294248
10000.3	8.22	0.0294338
10004.3	8.15	0.0294215
10008.3	8.08	0.0294167
10012.3	8.02	0.0293908
10016.3	7.95	0.0293641
10020.3	7.88	0.0293706
10024.3	7.82	0.0293577
10028.3	7.75	0.0293566
10032.3	7.68	0.0293590
10036.3	7.62	0.0293438
10040.3	7.55	0.0293332
10044.3	7.48	0.0293189
10048.3	7.42	0.0292714
10052.3	7.35	0.0292484
10056.3	7.28	0.0292552
10060.3	7.22	0.0292544
10064.3	7.15	0.0292527
10068.3	7.08	0.0292677
10072.3	7.02	0.0292751
10076.3	6.95	0.0292624
10080.3	6.88	0.0292478
10084.3	6.82	0.0292286
10088.3	6.75	0.0292315
10092.3	6.69	0.0294000
10096.3	6.62	0.0325152
10100.3	6.55	0.0324979
10104.3	6.48	0.0322507
10108.3	6.42	0.0317942
10112.3	6.35	0.0313306
10116.3	6.28	0.0309110
10120.3	6.22	0.0305422
10124.3	6.15	0.0302128
10128.3	6.08	0.0299380
10132.3	6.02	0.0297232
10136.3	5.95	0.0295819
10140.3	5.88	0.0294737
10144.3	5.82	0.0293723
10148.3	5.75	0.0292893
10152.3	5.68	0.0292314
10156.3	5.62	0.0291667
10160.3	5.55	0.0291201
10164.3	5.48	0.0291145
10168.3	5.42	0.0290599
10172.3	5.35	0.0290387
10176.3	5.28	0.0290421
10180.3	5.22	0.0290196
10184.3	5.15	0.0289779
10188.3	5.08	0.0289795
10192.3	5.02	0.0289730
10196.3	4.95	0.0289686
10200.3	4.88	0.0289317
10204.3	4.82	0.0289518
10208.3	4.75	0.0289453
10212.3	4.68	0.0289347
10216.3	4.62	0.0289091
10220.3	4.55	0.0289133
10224.3	4.48	0.0289487
10228.3	4.42	0.0289280
10232.3	4.35	0.0289248
10236.3	4.28	0.0289133
10240.3	4.22	0.0289002
10244.3	4.15	0.0289093
10248.3	4.08	0.0288762
10252.3	4.02	0.0288671
10256.3	3.95	0.0288546
10260.3	3.88	0.0288352
10264.3	3.82	0.0287978
10268.3	3.75	0.0287867
10272.3	3.68	0.0287839
10276.3	3.62	0.0287881
10280.3	3.55	0.0287911
10284.3	3.48	0.0287658
10288.3	3.42	0.0287575
10292.3	3.35	0.0287334
10296.3	3.28	0.0287202
10300.3	3.22	0.0287233
10304.3	3.15	0.0287333
10308.3	3.08	0.0287403
10312.3	3.02	0.0287535
10316.3	2.95	0.0287580
10320.3	2.88	0.0287638
10324.3	2.82	0.0287608
10328.3	2.75	0.0287876
10332.3	2.68	0.0287876
10336.3	2.62	0.0287524
10340.3	2.55	0.0287390
10344.3	2.48	0.0287250
10348.3	2.42	0.0287355
10352.3	2.35	0.0287341
10356.3	2.28	0.0287248
10360.3	2.22	0.0287233
10364.3	2.15	0.0287130
10368.3	2.08	0.0287064
10372.3	2.02	0.0286847
10376.3	1.95	0.0286775
10380.3	1.88	0.0286550
10384.3	1.82	0.0286525
10388.3	1.75	0.0286382
10392.3	1.68	0.0286362
10396.3	1.62	0.0286434
10400.3	1.55	0.0286438
10404.3	1.48	0.0286090
10408.3	1.42	0.0286392
10412.3	1.35	0.0286275
10416.3	1.28	0.0286260
10420.3	1.22	0.0286205
10424.3	1.15	0.0286056
10428.3	1.08	0.0286067
10432.3	1.02	0.0285919
10436.3	0.95	0.0285966
10440.3	0.88	0.0285931
10444.3	0.82	0.0285862
10448.3	0.75	0.0286050
10452.3	0.68	0.0286191
10456.3	0.62	0.0285940
10460.3	0.55	0.0285877
10464.3	0.48	0.0285615
10468.3	0.42	0.0285631
10472.3	0.35	0.0285871
10476.3	0.28	0.0285936
10480.3	0.22	0.0285928
10484.3	0.15	0.0285635
10488.3	0.08	0.0285759
10492.3	0.02	0.0285732
10496.3	-0.05	0.0285560
10500.2	-0.12	0.0285485