File: Differential scanning calorimetry/8OCB Squalane/8OCB SqA wt fraction 696.txt
Filename	8OCBSA696
Instrument name	DSC2A-00101 (192.168.10.4)
Operator	Yuma
rundate	5/30/2021
Sample name	8OCBSA696
proceduresegments	Data Off ; Equilibrate 150.00 °C; Isothermal 10.0 min; Equilibrate 100.00 °C; Isothermal 5.0 min; Data On ; Ramp 1.00 °C/min to 0.00 °C; Ramp 5.00 °C/min to 150.00 °C; Data Off ; Isothermal 10.0 min; Modulate Temperature 1.00 °C for 60.0 s; Equilibrate 100.00 °C; Isothermal 10.0 min; Data On ; Ramp 1.00 °C/min to 0.00 °C; Ramp 3.00 °C/min to 100.00 °C; Jump 30.00 °C
[step]
Ramp 1.00 °C/min to 0.00 °C
Time	Temperature	Heat Flow (Normalized)
s	°C	W/g
0.00000	99.84	2.63962e-3
4.10000	99.84	2.79354e-3
8.20000	99.81	1.50182e-3
12.3000	99.76	3.59797e-3
16.4000	99.70	0.0150338
20.5000	99.64	0.0217067
24.6000	99.58	0.0261537
28.7000	99.51	0.0288632
32.8000	99.44	0.0300957
36.9000	99.38	0.0309754
41.0000	99.31	0.0318037
45.1000	99.24	0.0325246
49.2000	99.17	0.0331242
53.3000	99.11	0.0335842
57.4000	99.04	0.0339689
61.5000	98.97	0.0342686
65.6000	98.90	0.0344797
69.7000	98.83	0.0346418
73.8000	98.77	0.0347484
77.9000	98.70	0.0348554
82.0000	98.63	0.0349413
86.1000	98.56	0.0350071
90.2000	98.49	0.0350644
94.3000	98.42	0.0350837
98.4000	98.35	0.0351406
102.500	98.29	0.0351458
106.600	98.22	0.0351549
110.700	98.15	0.0351927
114.800	98.08	0.0352040
118.900	98.01	0.0351519
123.000	97.95	0.0351229
127.100	97.88	0.0351536
131.200	97.81	0.0351564
135.300	97.74	0.0351335
139.400	97.67	0.0350945
143.500	97.60	0.0351034
147.600	97.54	0.0350751
151.700	97.47	0.0350541
155.800	97.40	0.0350454
159.900	97.33	0.0350120
164.000	97.26	0.0350298
168.100	97.20	0.0350057
172.200	97.13	0.0349564
176.300	97.06	0.0349847
180.400	96.99	0.0349723
184.500	96.92	0.0349812
188.600	96.85	0.0349778
192.700	96.78	0.0350201
196.800	96.72	0.0350080
200.900	96.65	0.0350112
205.000	96.58	0.0349902
209.100	96.51	0.0349381
213.200	96.44	0.0349240
217.300	96.37	0.0349385
221.400	96.31	0.0348652
225.500	96.24	0.0348469
229.600	96.17	0.0348621
233.700	96.10	0.0348622
237.800	96.03	0.0348474
241.900	95.96	0.0348323
246.000	95.90	0.0348235
250.100	95.83	0.0348211
254.200	95.76	0.0347849
258.300	95.69	0.0347702
262.400	95.62	0.0347407
266.500	95.55	0.0347549
270.600	95.49	0.0347359
274.700	95.42	0.0347062
278.800	95.35	0.0346941
282.900	95.28	0.0346899
287.000	95.21	0.0346964
291.100	95.15	0.0347096
295.200	95.08	0.0347352
299.300	95.01	0.0347305
303.400	94.94	0.0347569
307.500	94.87	0.0347762
311.600	94.80	0.0348135
315.700	94.73	0.0347692
319.800	94.67	0.0347328
323.900	94.60	0.0347065
328.000	94.53	0.0347049
332.100	94.46	0.0346701
336.200	94.39	0.0346602
340.300	94.32	0.0346847
344.400	94.26	0.0346667
348.500	94.19	0.0346286
352.600	94.12	0.0346009
356.700	94.05	0.0345712
360.800	93.98	0.0345121
364.900	93.92	0.0344589
369.000	93.85	0.0344933
373.100	93.78	0.0344602
377.200	93.71	0.0344463
381.300	93.64	0.0344721
385.400	93.57	0.0344483
389.500	93.51	0.0344575
393.600	93.44	0.0344550
397.700	93.37	0.0344712
401.800	93.30	0.0344542
405.900	93.23	0.0344212
410.000	93.16	0.0344026
414.100	93.09	0.0344374
418.200	93.03	0.0344059
422.300	92.96	0.0344179
426.400	92.89	0.0343639
430.500	92.82	0.0343683
434.600	92.75	0.0343789
438.700	92.68	0.0343881
442.800	92.62	0.0343827
446.900	92.55	0.0344144
451.000	92.48	0.0343698
455.100	92.41	0.0343581
459.200	92.34	0.0343142
463.300	92.27	0.0343503
467.400	92.21	0.0343258
471.500	92.14	0.0342837
475.600	92.07	0.0343111
479.700	92.00	0.0343235
483.800	91.93	0.0343333
487.900	91.86	0.0343109
492.000	91.80	0.0343116
496.100	91.73	0.0342968
500.200	91.66	0.0342878
504.300	91.59	0.0342258
508.400	91.52	0.0342362
512.500	91.45	0.0342139
516.600	91.39	0.0342003
520.700	91.32	0.0342077
524.800	91.25	0.0341811
528.900	91.18	0.0341701
533.000	91.11	0.0341399
537.100	91.04	0.0341180
541.200	90.98	0.0341533
545.300	90.91	0.0341313
549.400	90.84	0.0341786
553.500	90.77	0.0341607
557.600	90.70	0.0341561
561.700	90.63	0.0341091
565.800	90.57	0.0341160
569.900	90.50	0.0340947
574.000	90.43	0.0340860
578.100	90.36	0.0340987
582.200	90.29	0.0341353
586.300	90.23	0.0340778
590.400	90.16	0.0340842
594.500	90.09	0.0340543
598.600	90.02	0.0340299
602.700	89.95	0.0340204
606.800	89.88	0.0339765
610.900	89.82	0.0339787
615.000	89.75	0.0340156
619.100	89.68	0.0340386
623.200	89.61	0.0340432
627.300	89.54	0.0339929
631.400	89.47	0.0339964
635.500	89.40	0.0339704
639.600	89.34	0.0339899
643.700	89.27	0.0339695
647.800	89.20	0.0339552
651.900	89.13	0.0339616
656.000	89.06	0.0339781
660.100	89.00	0.0339479
664.200	88.93	0.0339421
668.300	88.86	0.0339580
672.400	88.79	0.0339568
676.500	88.72	0.0339016
680.600	88.65	0.0338926
684.700	88.58	0.0338762
688.800	88.52	0.0338854
692.900	88.45	0.0338594
697.000	88.38	0.0338347
701.100	88.31	0.0338501
705.200	88.24	0.0338124
709.300	88.17	0.0338296
713.400	88.11	0.0337686
717.500	88.04	0.0337490
721.600	87.97	0.0337748
725.700	87.90	0.0337626
729.800	87.83	0.0337340
733.900	87.76	0.0336938
738.000	87.70	0.0336789
742.100	87.63	0.0336299
746.200	87.56	0.0336388
750.300	87.49	0.0336251
754.400	87.42	0.0336428
758.500	87.36	0.0336866
762.600	87.29	0.0336418
766.700	87.22	0.0336356
770.800	87.15	0.0336157
774.900	87.08	0.0336334
779.000	87.01	0.0336413
783.100	86.95	0.0336230
787.200	86.88	0.0336118
791.300	86.81	0.0336270
795.400	86.74	0.0336122
799.500	86.67	0.0335885
803.600	86.60	0.0335836
807.700	86.54	0.0335291
811.800	86.47	0.0335325
815.900	86.40	0.0334819
820.000	86.33	0.0334698
824.100	86.26	0.0334695
828.200	86.19	0.0334903
832.300	86.12	0.0334845
836.400	86.06	0.0334982
840.500	85.99	0.0335169
844.600	85.92	0.0335004
848.700	85.85	0.0334623
852.800	85.78	0.0334355
856.900	85.72	0.0334054
861.000	85.65	0.0333935
865.100	85.58	0.0333978
869.200	85.51	0.0334108
873.300	85.44	0.0333812
877.400	85.37	0.0333541
881.500	85.31	0.0333478
885.600	85.24	0.0333321
889.700	85.17	0.0333239
893.800	85.10	0.0333367
897.900	85.03	0.0333097
902.000	84.96	0.0332671
906.100	84.90	0.0332811
910.200	84.83	0.0332659
914.300	84.76	0.0332620
918.400	84.69	0.0332851
922.500	84.62	0.0333148
926.600	84.55	0.0333128
930.700	84.48	0.0333181
934.800	84.42	0.0333332
938.900	84.35	0.0333345
943.000	84.28	0.0333046
947.100	84.21	0.0333056
951.200	84.14	0.0332900
955.300	84.08	0.0332737
959.400	84.01	0.0332326
963.500	83.94	0.0332170
967.600	83.87	0.0332017
971.700	83.80	0.0332028
975.800	83.73	0.0332115
979.900	83.67	0.0332315
984.000	83.60	0.0331816
988.100	83.53	0.0331246
992.200	83.46	0.0331157
996.300	83.39	0.0330836
1000.40	83.32	0.0331010
1004.50	83.26	0.0330718
1008.60	83.19	0.0330806
1012.70	83.12	0.0330836
1016.80	83.05	0.0330896
1020.90	82.98	0.0330698
1025.00	82.91	0.0330817
1029.10	82.85	0.0331132
1033.20	82.78	0.0331164
1037.30	82.71	0.0330867
1041.40	82.64	0.0330589
1045.50	82.57	0.0330690
1049.60	82.50	0.0330453
1053.70	82.44	0.0330363
1057.80	82.37	0.0330536
1061.90	82.30	0.0330538
1066.00	82.23	0.0330123
1070.10	82.16	0.0330080
1074.20	82.09	0.0330053
1078.30	82.03	0.0330002
1082.40	81.96	0.0329448
1086.50	81.89	0.0329572
1090.60	81.82	0.0329611
1094.70	81.75	0.0329628
1098.80	81.68	0.0329818
1102.90	81.62	0.0329670
1107.00	81.55	0.0329721
1111.10	81.48	0.0329484
1115.20	81.41	0.0329309
1119.30	81.34	0.0328938
1123.40	81.28	0.0328773
1127.50	81.21	0.0328974
1131.60	81.14	0.0328886
1135.70	81.07	0.0328596
1139.80	81.00	0.0328645
1143.90	80.93	0.0328616
1148.00	80.86	0.0328637
1152.10	80.80	0.0328274
1156.20	80.73	0.0328628
1160.30	80.66	0.0328608
1164.40	80.59	0.0328857
1168.50	80.52	0.0328732
1172.60	80.46	0.0328453
1176.70	80.39	0.0328416
1180.80	80.32	0.0328156
1184.90	80.25	0.0328254
1189.00	80.18	0.0328003
1193.10	80.11	0.0327744
1197.20	80.04	0.0327637
1201.30	79.98	0.0327333
1205.40	79.91	0.0327109
1209.50	79.84	0.0327037
1213.60	79.77	0.0327105
1217.70	79.70	0.0326484
1221.80	79.63	0.0326382
1225.90	79.57	0.0326317
1230.00	79.50	0.0326260
1234.10	79.43	0.0326252
1238.20	79.36	0.0326250
1242.30	79.29	0.0326385
1246.40	79.23	0.0326425
1250.50	79.16	0.0326280
1254.60	79.09	0.0326289
1258.70	79.02	0.0326182
1262.80	78.95	0.0325822
1266.90	78.88	0.0325793
1271.00	78.81	0.0325884
1275.10	78.75	0.0325652
1279.20	78.68	0.0325543
1283.30	78.61	0.0325468
1287.40	78.54	0.0325180
1291.50	78.47	0.0325241
1295.60	78.40	0.0324894
1299.70	78.34	0.0325038
1303.80	78.27	0.0324824
1307.90	78.20	0.0324827
1312.00	78.13	0.0324984
1316.10	78.06	0.0324730
1320.20	77.99	0.0325016
1324.30	77.93	0.0325022
1328.40	77.86	0.0324859
1332.50	77.79	0.0324576
1336.60	77.72	0.0324244
1340.70	77.65	0.0324506
1344.80	77.59	0.0324355
1348.90	77.52	0.0324315
1353.00	77.45	0.0324312
1357.10	77.38	0.0324236
1361.20	77.31	0.0324125
1365.30	77.24	0.0323896
1369.40	77.17	0.0324161
1373.50	77.11	0.0323883
1377.60	77.04	0.0323678
1381.70	76.97	0.0323158
1385.80	76.90	0.0322850
1389.90	76.83	0.0323007
1394.00	76.76	0.0323284
1398.10	76.70	0.0323345
1402.20	76.63	0.0323372
1406.30	76.56	0.0323446
1410.40	76.49	0.0323351
1414.50	76.42	0.0323227
1418.60	76.35	0.0323072
1422.70	76.29	0.0323033
1426.80	76.22	0.0322847
1430.90	76.15	0.0322578
1435.00	76.08	0.0322675
1439.10	76.01	0.0322531
1443.20	75.95	0.0322357
1447.30	75.88	0.0322010
1451.40	75.81	0.0321991
1455.50	75.74	0.0321927
1459.60	75.67	0.0322194
1463.70	75.60	0.0322249
1467.80	75.54	0.0322052
1471.90	75.47	0.0321975
1476.00	75.40	0.0321930
1480.10	75.33	0.0321851
1484.20	75.26	0.0321769
1488.30	75.19	0.0321758
1492.40	75.13	0.0321620
1496.50	75.06	0.0321695
1500.60	74.99	0.0321801
1504.70	74.92	0.0321578
1508.80	74.85	0.0321564
1512.90	74.78	0.0321490
1517.00	74.72	0.0321284
1521.10	74.65	0.0321029
1525.20	74.58	0.0321067
1529.30	74.51	0.0320863
1533.40	74.44	0.0320932
1537.50	74.37	0.0320638
1541.60	74.31	0.0320422
1545.70	74.24	0.0320627
1549.80	74.17	0.0320176
1553.90	74.10	0.0319938
1558.00	74.03	0.0319973
1562.10	73.96	0.0319903
1566.20	73.90	0.0319938
1570.30	73.83	0.0320159
1574.40	73.76	0.0320129
1578.50	73.69	0.0320303
1582.60	73.62	0.0320292
1586.70	73.55	0.0320154
1590.80	73.49	0.0320008
1594.90	73.42	0.0319840
1599.00	73.35	0.0319806
1603.10	73.28	0.0319702
1607.20	73.21	0.0319413
1611.30	73.14	0.0319413
1615.40	73.08	0.0319464
1619.50	73.01	0.0319602
1623.60	72.94	0.0319272
1627.70	72.87	0.0319425
1631.80	72.80	0.0319289
1635.90	72.73	0.0319214
1640.00	72.67	0.0319165
1644.10	72.60	0.0318969
1648.20	72.53	0.0319015
1652.30	72.46	0.0318884
1656.40	72.39	0.0318562
1660.50	72.32	0.0318387
1664.60	72.26	0.0318343
1668.70	72.19	0.0318073
1672.80	72.12	0.0318418
1676.90	72.05	0.0318318
1681.00	71.98	0.0318238
1685.10	71.91	0.0318585
1689.20	71.85	0.0318134
1693.30	71.78	0.0317989
1697.40	71.71	0.0317748
1701.50	71.64	0.0317740
1705.60	71.57	0.0318204
1709.70	71.50	0.0318046
1713.80	71.44	0.0317888
1717.90	71.37	0.0317781
1722.00	71.30	0.0317776
1726.10	71.23	0.0317755
1730.20	71.16	0.0317631
1734.30	71.09	0.0317210
1738.40	71.03	0.0317375
1742.50	70.96	0.0317130
1746.60	70.89	0.0317402
1750.70	70.82	0.0317318
1754.80	70.75	0.0317346
1758.90	70.68	0.0317550
1763.00	70.61	0.0317441
1767.10	70.55	0.0317709
1771.20	70.48	0.0317397
1775.30	70.41	0.0317318
1779.40	70.34	0.0316798
1783.50	70.27	0.0316878
1787.60	70.20	0.0316569
1791.70	70.14	0.0316136
1795.80	70.07	0.0316049
1799.90	70.00	0.0316088
1804.00	69.93	0.0315846
1808.10	69.86	0.0316120
1812.20	69.80	0.0315923
1816.30	69.73	0.0315916
1820.40	69.66	0.0315867
1824.50	69.59	0.0315694
1828.60	69.52	0.0315645
1832.70	69.46	0.0316172
1836.80	69.39	0.0316072
1840.90	69.32	0.0315931
1845.00	69.25	0.0315835
1849.10	69.18	0.0315254
1853.20	69.11	0.0315458
1857.30	69.05	0.0315402
1861.40	68.98	0.0315139
1865.50	68.91	0.0314931
1869.60	68.84	0.0315148
1873.70	68.77	0.0315145
1877.80	68.70	0.0315110
1881.90	68.63	0.0315164
1886.00	68.57	0.0315051
1890.10	68.50	0.0314768
1894.20	68.43	0.0314588
1898.30	68.36	0.0314978
1902.40	68.29	0.0315219
1906.50	68.22	0.0315031
1910.60	68.16	0.0314704
1914.70	68.09	0.0314843
1918.80	68.02	0.0314870
1922.90	67.95	0.0314965
1927.00	67.88	0.0314764
1931.10	67.81	0.0314301
1935.20	67.75	0.0314275
1939.30	67.68	0.0313749
1943.40	67.61	0.0313472
1947.50	67.54	0.0313365
1951.60	67.47	0.0313007
1955.70	67.41	0.0313037
1959.80	67.34	0.0313089
1963.90	67.27	0.0312958
1968.00	67.20	0.0313068
1972.10	67.13	0.0313385
1976.20	67.06	0.0313342
1980.30	67.00	0.0313226
1984.40	66.93	0.0313131
1988.50	66.86	0.0313433
1992.60	66.79	0.0313828
1996.70	66.72	0.0313735
2000.80	66.65	0.0313357
2004.90	66.58	0.0313316
2009.00	66.52	0.0313385
2013.10	66.45	0.0313391
2017.20	66.38	0.0313515
2021.30	66.31	0.0313298
2025.40	66.24	0.0313071
2029.50	66.17	0.0312674
2033.60	66.11	0.0312731
2037.70	66.04	0.0312556
2041.80	65.97	0.0312196
2045.90	65.90	0.0312740
2050.00	65.83	0.0312691
2054.10	65.76	0.0312560
2058.20	65.70	0.0312730
2062.30	65.63	0.0312873
2066.40	65.56	0.0312912
2070.50	65.49	0.0312640
2074.60	65.42	0.0312530
2078.70	65.35	0.0312518
2082.80	65.29	0.0312539
2086.90	65.22	0.0312281
2091.00	65.15	0.0312349
2095.10	65.08	0.0312465
2099.20	65.01	0.0312514
2103.30	64.94	0.0312383
2107.40	64.88	0.0312051
2111.50	64.81	0.0311852
2115.60	64.74	0.0312025
2119.70	64.67	0.0312017
2123.80	64.60	0.0312305
2127.90	64.54	0.0312110
2132.00	64.47	0.0312178
2136.10	64.40	0.0312351
2140.20	64.33	0.0312230
2144.30	64.26	0.0312379
2148.40	64.19	0.0312355
2152.50	64.12	0.0312281
2156.60	64.06	0.0312322
2160.70	63.99	0.0312661
2164.80	63.92	0.0312387
2168.90	63.85	0.0312150
2173.00	63.78	0.0311853
2177.10	63.71	0.0312062
2181.20	63.65	0.0311928
2185.30	63.58	0.0312173
2189.40	63.51	0.0312158
2193.50	63.44	0.0312276
2197.60	63.37	0.0312735
2201.70	63.31	0.0312679
2205.80	63.24	0.0312525
2209.90	63.17	0.0312650
2214.00	63.10	0.0312276
2218.10	63.03	0.0312199
2222.20	62.96	0.0312439
2226.30	62.90	0.0312685
2230.40	62.83	0.0312842
2234.50	62.76	0.0312612
2238.60	62.69	0.0312798
2242.70	62.62	0.0312464
2246.80	62.55	0.0312490
2250.90	62.49	0.0312369
2255.00	62.42	0.0312399
2259.10	62.35	0.0312569
2263.20	62.28	0.0312577
2267.30	62.21	0.0312508
2271.40	62.14	0.0312616
2275.50	62.08	0.0312965
2279.60	62.01	0.0312904
2283.70	61.94	0.0312811
2287.80	61.87	0.0313140
2291.90	61.80	0.0313281
2296.00	61.73	0.0313813
2300.10	61.67	0.0313900
2304.20	61.60	0.0314093
2308.30	61.53	0.0314483
2312.40	61.46	0.0314922
2316.50	61.39	0.0315294
2320.60	61.32	0.0315662
2324.70	61.26	0.0316589
2328.80	61.19	0.0318077
2332.90	61.12	0.0321994
2337.00	61.05	0.0330185
2341.10	60.98	0.0338701
2345.20	60.92	0.0346883
2349.30	60.85	0.0353747
2353.40	60.78	0.0358793
2357.50	60.71	0.0362934
2361.60	60.64	0.0366204
2365.70	60.57	0.0368342
2369.80	60.51	0.0369670
2373.90	60.44	0.0370306
2378.00	60.37	0.0369990
2382.10	60.30	0.0369346
2386.20	60.23	0.0369077
2390.30	60.17	0.0368685
2394.40	60.10	0.0368113
2398.50	60.03	0.0367723
2402.60	59.96	0.0367682
2406.70	59.89	0.0367055
2410.80	59.82	0.0366827
2414.90	59.75	0.0366902
2419.00	59.69	0.0366999
2423.10	59.62	0.0367109
2427.20	59.55	0.0367364
2431.30	59.48	0.0367665
2435.40	59.41	0.0368233
2439.50	59.36	0.0395170
2443.60	59.30	0.0836595
2447.70	59.23	0.0868874
2451.80	59.15	0.0691312
2455.90	59.08	0.0582486
2460.00	59.01	0.0527997
2464.10	58.94	0.0495363
2468.20	58.87	0.0477571
2472.30	58.80	0.0467169
2476.40	58.73	0.0457474
2480.50	58.66	0.0448689
2484.60	58.59	0.0440426
2488.70	58.53	0.0433075
2492.80	58.46	0.0427152
2496.90	58.39	0.0421704
2501.00	58.32	0.0416892
2505.10	58.25	0.0413072
2509.20	58.18	0.0408854
2513.30	58.12	0.0406284
2517.40	58.05	0.0403591
2521.50	57.98	0.0401922
2525.60	57.91	0.0400689
2529.70	57.84	0.0399242
2533.80	57.78	0.0398515
2537.90	57.71	0.0399996
2542.00	57.64	0.0402005
2546.10	57.57	0.0401677
2550.20	57.50	0.0399147
2554.30	57.43	0.0396369
2558.40	57.36	0.0392962
2562.50	57.30	0.0389351
2566.60	57.23	0.0386074
2570.70	57.16	0.0383298
2574.80	57.09	0.0380291
2578.90	57.02	0.0377669
2583.00	56.95	0.0375351
2587.10	56.89	0.0372766
2591.20	56.82	0.0370654
2595.30	56.75	0.0368844
2599.40	56.68	0.0366954
2603.50	56.61	0.0365399
2607.60	56.54	0.0363546
2611.70	56.48	0.0361913
2615.80	56.41	0.0360505
2619.90	56.34	0.0359241
2624.00	56.27	0.0357864
2628.10	56.20	0.0357028
2632.20	56.13	0.0355878
2636.30	56.07	0.0355155
2640.40	56.00	0.0353945
2644.50	55.93	0.0352952
2648.60	55.86	0.0352236
2652.70	55.79	0.0351225
2656.80	55.72	0.0350501
2660.90	55.65	0.0349719
2665.00	55.58	0.0348973
2669.10	55.52	0.0348113
2673.20	55.45	0.0347709
2677.30	55.38	0.0347094
2681.40	55.31	0.0346159
2685.50	55.24	0.0344896
2689.60	55.18	0.0344190
2693.70	55.11	0.0343582
2697.80	55.04	0.0342799
2701.90	54.97	0.0341869
2706.00	54.90	0.0340951
2710.10	54.83	0.0340430
2714.20	54.77	0.0339948
2718.30	54.70	0.0339174
2722.40	54.63	0.0338685
2726.50	54.56	0.0337470
2730.60	54.49	0.0337010
2734.70	54.42	0.0336653
2738.80	54.36	0.0336091
2742.90	54.29	0.0335766
2747.00	54.22	0.0335532
2751.10	54.15	0.0334931
2755.20	54.08	0.0334536
2759.30	54.01	0.0333874
2763.40	53.94	0.0333230
2767.50	53.88	0.0332646
2771.60	53.81	0.0332101
2775.70	53.74	0.0331592
2779.80	53.67	0.0330832
2783.90	53.60	0.0330402
2788.00	53.54	0.0329713
2792.10	53.47	0.0329614
2796.20	53.40	0.0329036
2800.30	53.33	0.0328847
2804.40	53.26	0.0328387
2808.50	53.19	0.0328033
2812.60	53.13	0.0327854
2816.70	53.06	0.0327122
2820.80	52.99	0.0326810
2824.90	52.92	0.0326571
2829.00	52.85	0.0326224
2833.10	52.78	0.0326159
2837.20	52.72	0.0325826
2841.30	52.65	0.0325406
2845.40	52.58	0.0325127
2849.50	52.51	0.0324290
2853.60	52.44	0.0323690
2857.70	52.37	0.0323347
2861.80	52.30	0.0323159
2865.90	52.24	0.0322901
2870.00	52.17	0.0322414
2874.10	52.10	0.0322044
2878.20	52.03	0.0321729
2882.30	51.96	0.0321413
2886.40	51.89	0.0320943
2890.50	51.83	0.0320692
2894.60	51.76	0.0320267
2898.70	51.69	0.0319787
2902.80	51.62	0.0319662
2906.90	51.55	0.0319446
2911.00	51.49	0.0318957
2915.10	51.42	0.0318118
2919.20	51.35	0.0318013
2923.30	51.28	0.0317874
2927.40	51.21	0.0317035
2931.50	51.14	0.0316931
2935.60	51.07	0.0316680
2939.70	51.01	0.0316714
2943.80	50.94	0.0316158
2947.90	50.87	0.0315781
2952.00	50.80	0.0315759
2956.10	50.73	0.0315675
2960.20	50.66	0.0315402
2964.30	50.60	0.0314313
2968.40	50.53	0.0314108
2972.50	50.46	0.0313989
2976.60	50.39	0.0313511
2980.70	50.32	0.0313500
2984.80	50.26	0.0313333
2988.90	50.19	0.0313328
2993.00	50.12	0.0313399
2997.10	50.05	0.0313146
3001.20	49.98	0.0312661
3005.30	49.91	0.0312659
3009.40	49.84	0.0312491
3013.50	49.78	0.0312095
3017.60	49.71	0.0311568
3021.70	49.64	0.0311526
3025.80	49.57	0.0310848
3029.90	49.50	0.0310236
3034.00	49.43	0.0310079
3038.10	49.37	0.0309792
3042.20	49.30	0.0309706
3046.30	49.23	0.0309616
3050.40	49.16	0.0309550
3054.50	49.09	0.0309420
3058.60	49.03	0.0309021
3062.70	48.96	0.0308822
3066.80	48.89	0.0308326
3070.90	48.82	0.0308518
3075.00	48.75	0.0308298
3079.10	48.68	0.0308094
3083.20	48.61	0.0307600
3087.30	48.55	0.0307411
3091.40	48.48	0.0307096
3095.50	48.41	0.0306735
3099.60	48.34	0.0306465
3103.70	48.27	0.0305863
3107.80	48.20	0.0305583
3111.90	48.14	0.0305182
3116.00	48.07	0.0304667
3120.10	48.00	0.0303961
3124.20	47.93	0.0303883
3128.30	47.86	0.0303618
3132.40	47.80	0.0303306
3136.50	47.73	0.0303447
3140.60	47.66	0.0303318
3144.70	47.59	0.0303199
3148.80	47.52	0.0303307
3152.90	47.45	0.0303325
3157.00	47.39	0.0303759
3161.10	47.32	0.0303810
3165.20	47.25	0.0303425
3169.30	47.18	0.0302950
3173.40	47.11	0.0302910
3177.50	47.04	0.0302390
3181.60	46.97	0.0301711
3185.70	46.91	0.0301264
3189.80	46.84	0.0300715
3193.90	46.77	0.0300461
3198.00	46.70	0.0300316
3202.10	46.63	0.0299821
3206.20	46.57	0.0299163
3210.30	46.49	0.0299000
3214.40	46.43	0.0299081
3218.50	46.36	0.0299118
3222.60	46.29	0.0298578
3226.70	46.22	0.0298558
3230.80	46.15	0.0298197
3234.90	46.09	0.0298375
3239.00	46.02	0.0298438
3243.10	45.95	0.0298503
3247.20	45.88	0.0298709
3251.30	45.81	0.0298832
3255.40	45.74	0.0298482
3259.50	45.68	0.0298298
3263.60	45.61	0.0298211
3267.70	45.54	0.0298015
3271.80	45.47	0.0297637
3275.90	45.40	0.0297078
3280.00	45.33	0.0296762
3284.10	45.27	0.0296678
3288.20	45.20	0.0296599
3292.30	45.13	0.0296063
3296.40	45.06	0.0295540
3300.50	44.99	0.0295276
3304.60	44.92	0.0295225
3308.70	44.86	0.0295022
3312.80	44.79	0.0294846
3316.90	44.72	0.0294902
3321.00	44.65	0.0294835
3325.10	44.58	0.0294780
3329.20	44.52	0.0294871
3333.30	44.45	0.0294822
3337.40	44.38	0.0294386
3341.50	44.31	0.0294371
3345.60	44.24	0.0294235
3349.70	44.17	0.0293756
3353.80	44.10	0.0293583
3357.90	44.04	0.0293681
3362.00	43.97	0.0293490
3366.10	43.90	0.0292960
3370.20	43.83	0.0292677
3374.30	43.76	0.0292559
3378.40	43.69	0.0292107
3382.50	43.63	0.0291975
3386.60	43.56	0.0291942
3390.70	43.49	0.0291752
3394.80	43.42	0.0291353
3398.90	43.35	0.0291200
3403.00	43.28	0.0291055
3407.10	43.22	0.0290781
3411.20	43.15	0.0290706
3415.30	43.08	0.0290630
3419.40	43.01	0.0290620
3423.50	42.94	0.0290264
3427.60	42.87	0.0290315
3431.70	42.81	0.0290289
3435.80	42.74	0.0290011
3439.90	42.67	0.0289630
3444.00	42.60	0.0289840
3448.10	42.53	0.0289873
3452.20	42.46	0.0289729
3456.30	42.40	0.0289321
3460.40	42.33	0.0288889
3464.50	42.26	0.0288658
3468.60	42.19	0.0288651
3472.70	42.12	0.0288267
3476.80	42.05	0.0288484
3480.90	41.99	0.0288124
3485.00	41.92	0.0287708
3489.10	41.85	0.0287503
3493.20	41.78	0.0287417
3497.30	41.71	0.0287508
3501.40	41.64	0.0287076
3505.50	41.58	0.0286720
3509.60	41.51	0.0286424
3513.70	41.44	0.0286622
3517.80	41.37	0.0286424
3521.90	41.30	0.0286071
3526.00	41.23	0.0285349
3530.10	41.17	0.0285145
3534.20	41.10	0.0284829
3538.30	41.03	0.0285161
3542.40	40.96	0.0285039
3546.50	40.89	0.0284783
3550.60	40.83	0.0284661
3554.70	40.76	0.0284454
3558.80	40.69	0.0284393
3562.90	40.62	0.0284415
3567.00	40.55	0.0284303
3571.10	40.48	0.0284376
3575.20	40.41	0.0284119
3579.30	40.35	0.0283910
3583.40	40.28	0.0283202
3587.50	40.21	0.0283143
3591.60	40.14	0.0283304
3595.70	40.07	0.0283227
3599.80	40.00	0.0282980
3603.90	39.94	0.0282915
3608.00	39.87	0.0282766
3612.10	39.80	0.0282352
3616.20	39.73	0.0282082
3620.30	39.66	0.0281907
3624.40	39.59	0.0281720
3628.50	39.53	0.0281675
3632.60	39.46	0.0281458
3636.70	39.39	0.0281155
3640.80	39.32	0.0281131
3644.90	39.25	0.0280955
3649.00	39.18	0.0280796
3653.10	39.12	0.0280580
3657.20	39.05	0.0280174
3661.30	38.98	0.0279956
3665.40	38.91	0.0279751
3669.50	38.84	0.0279955
3673.60	38.77	0.0279814
3677.70	38.71	0.0279526
3681.80	38.64	0.0279309
3685.90	38.57	0.0279072
3690.00	38.50	0.0279184
3694.10	38.43	0.0278807
3698.20	38.36	0.0278855
3702.30	38.30	0.0278843
3706.40	38.23	0.0278368
3710.50	38.16	0.0277948
3714.60	38.09	0.0277490
3718.70	38.02	0.0277770
3722.80	37.95	0.0277754
3726.90	37.89	0.0277744
3731.00	37.82	0.0277498
3735.10	37.75	0.0277220
3739.20	37.68	0.0277091
3743.30	37.61	0.0277188
3747.40	37.54	0.0277188
3751.50	37.48	0.0276910
3755.60	37.41	0.0276807
3759.70	37.34	0.0276576
3763.80	37.27	0.0276484
3767.90	37.20	0.0276326
3772.00	37.13	0.0276090
3776.10	37.07	0.0275619
3780.20	37.00	0.0275563
3784.30	36.93	0.0275374
3788.40	36.86	0.0275283
3792.50	36.79	0.0275509
3796.60	36.72	0.0275182
3800.70	36.66	0.0275275
3804.80	36.59	0.0275169
3808.90	36.52	0.0275096
3813.00	36.45	0.0274866
3817.10	36.38	0.0274668
3821.20	36.31	0.0274746
3825.30	36.25	0.0274855
3829.40	36.18	0.0274763
3833.50	36.11	0.0274290
3837.60	36.04	0.0274271
3841.70	35.97	0.0274306
3845.80	35.91	0.0274167
3849.90	35.84	0.0273926
3854.00	35.77	0.0273956
3858.10	35.70	0.0273854
3862.20	35.63	0.0273859
3866.30	35.56	0.0273623
3870.40	35.49	0.0273292
3874.50	35.43	0.0273191
3878.60	35.36	0.0272846
3882.70	35.29	0.0272544
3886.80	35.22	0.0272414
3890.90	35.15	0.0272237
3895.00	35.08	0.0271970
3899.10	35.02	0.0271955
3903.20	34.95	0.0272091
3907.30	34.88	0.0271892
3911.40	34.81	0.0271820
3915.50	34.74	0.0272065
3919.60	34.68	0.0271658
3923.70	34.61	0.0271386
3927.80	34.54	0.0271190
3931.90	34.47	0.0270828
3936.00	34.40	0.0271080
3940.10	34.33	0.0270894
3944.20	34.26	0.0270670
3948.30	34.20	0.0270567
3952.40	34.13	0.0270429
3956.50	34.06	0.0270330
3960.60	33.99	0.0270004
3964.70	33.92	0.0269897
3968.80	33.85	0.0269955
3972.90	33.79	0.0270054
3977.00	33.72	0.0269478
3981.10	33.65	0.0269443
3985.20	33.58	0.0269225
3989.30	33.51	0.0269268
3993.40	33.44	0.0269177
3997.50	33.38	0.0268840
4001.60	33.31	0.0268743
4005.70	33.24	0.0268822
4009.80	33.17	0.0268980
4013.90	33.10	0.0268594
4018.00	33.03	0.0268407
4022.10	32.97	0.0268499
4026.20	32.90	0.0268348
4030.30	32.83	0.0268101
4034.40	32.76	0.0268019
4038.50	32.69	0.0267825
4042.60	32.62	0.0267686
4046.70	32.56	0.0267481
4050.80	32.49	0.0267757
4054.90	32.42	0.0267701
4059.00	32.35	0.0267146
4063.10	32.28	0.0267001
4067.20	32.21	0.0266861
4071.30	32.15	0.0266810
4075.40	32.08	0.0266584
4079.50	32.01	0.0266250
4083.60	31.94	0.0266145
4087.70	31.87	0.0265720
4091.80	31.80	0.0265741
4095.90	31.74	0.0265344
4100.00	31.67	0.0264970
4104.10	31.60	0.0264588
4108.20	31.53	0.0264288
4112.30	31.46	0.0263840
4116.40	31.39	0.0263831
4120.50	31.33	0.0263726
4124.60	31.26	0.0263878
4128.70	31.19	0.0263848
4132.80	31.12	0.0263428
4136.90	31.05	0.0263281
4141.00	30.98	0.0263140
4145.10	30.92	0.0263045
4149.20	30.85	0.0262838
4153.30	30.78	0.0262727
4157.40	30.71	0.0262415
4161.50	30.64	0.0262469
4165.60	30.57	0.0262184
4169.70	30.51	0.0262001
4173.80	30.44	0.0261503
4177.90	30.37	0.0261519
4182.00	30.30	0.0261481
4186.10	30.23	0.0261832
4190.20	30.17	0.0261548
4194.30	30.10	0.0261471
4198.40	30.03	0.0261290
4202.50	29.96	0.0260963
4206.60	29.89	0.0261132
4210.70	29.82	0.0261373
4214.80	29.75	0.0261474
4218.90	29.69	0.0260808
4223.00	29.62	0.0260727
4227.10	29.55	0.0260828
4231.20	29.48	0.0260637
4235.30	29.41	0.0260726
4239.40	29.34	0.0260891
4243.50	29.28	0.0260611
4247.60	29.21	0.0260302
4251.70	29.14	0.0260201
4255.80	29.07	0.0260030
4259.90	29.00	0.0259980
4264.00	28.94	0.0259828
4268.10	28.87	0.0259520
4272.20	28.80	0.0259236
4276.30	28.73	0.0259161
4280.40	28.66	0.0259085
4284.50	28.59	0.0258667
4288.60	28.52	0.0258444
4292.70	28.46	0.0258449
4296.80	28.39	0.0258021
4300.90	28.32	0.0257814
4305.00	28.25	0.0257586
4309.10	28.18	0.0257294
4313.20	28.11	0.0257234
4317.30	28.05	0.0257446
4321.40	27.98	0.0257161
4325.50	27.91	0.0256787
4329.60	27.84	0.0257113
4333.70	27.77	0.0256931
4337.80	27.70	0.0256838
4341.90	27.64	0.0256437
4346.00	27.57	0.0256748
4350.10	27.50	0.0256384
4354.20	27.43	0.0256262
4358.30	27.36	0.0255941
4362.40	27.29	0.0255901
4366.50	27.23	0.0255758
4370.60	27.16	0.0255595
4374.70	27.09	0.0255533
4378.80	27.02	0.0255664
4382.90	26.95	0.0255651
4387.00	26.88	0.0255352
4391.10	26.82	0.0255151
4395.20	26.75	0.0255056
4399.30	26.68	0.0255417
4403.40	26.61	0.0255360
4407.50	26.54	0.0255309
4411.60	26.47	0.0255273
4415.70	26.41	0.0255061
4419.80	26.34	0.0254953
4423.90	26.27	0.0254493
4428.00	26.20	0.0254278
4432.10	26.13	0.0254267
4436.20	26.06	0.0253913
4440.30	26.00	0.0253737
4444.40	25.93	0.0253789
4448.50	25.86	0.0253581
4452.60	25.79	0.0253492
4456.70	25.72	0.0253639
4460.80	25.65	0.0253585
4464.90	25.59	0.0253422
4469.00	25.52	0.0253590
4473.10	25.45	0.0253104
4477.20	25.38	0.0252952
4481.30	25.31	0.0252564
4485.40	25.25	0.0252477
4489.50	25.18	0.0252492
4493.60	25.11	0.0252306
4497.70	25.04	0.0252104
4501.80	24.97	0.0252409
4505.90	24.90	0.0252462
4510.00	24.83	0.0251966
4514.10	24.77	0.0252263
4518.20	24.70	0.0251868
4522.30	24.63	0.0251798
4526.40	24.56	0.0251500
4530.50	24.49	0.0251398
4534.60	24.42	0.0251356
4538.70	24.36	0.0251186
4542.80	24.29	0.0251134
4546.90	24.22	0.0250795
4551.00	24.15	0.0250415
4555.10	24.08	0.0250392
4559.20	24.01	0.0250532
4563.30	23.95	0.0250526
4567.40	23.88	0.0250299
4571.50	23.81	0.0250106
4575.60	23.74	0.0250208
4579.70	23.67	0.0250035
4583.80	23.60	0.0249772
4587.90	23.54	0.0250028
4592.00	23.47	0.0249898
4596.10	23.40	0.0249651
4600.20	23.33	0.0249648
4604.30	23.26	0.0249266
4608.40	23.19	0.0249276
4612.50	23.13	0.0249045
4616.60	23.06	0.0248945
4620.70	22.99	0.0249037
4624.80	22.92	0.0248580
4628.90	22.85	0.0248544
4633.00	22.78	0.0248320
4637.10	22.72	0.0248280
4641.20	22.65	0.0248200
4645.30	22.58	0.0248174
4649.40	22.51	0.0248581
4653.50	22.44	0.0248496
4657.60	22.37	0.0248401
4661.70	22.31	0.0249486
4665.80	22.24	0.0256408
4669.90	22.18	0.0296970
4674.00	22.11	0.0352335
4678.10	22.05	0.0471427
4682.20	21.99	0.0596298
4686.30	21.94	0.0784844
4690.40	21.92	0.138746
4694.50	21.89	0.228216
4698.60	21.85	0.313709
4702.70	21.78	0.331285
4706.80	21.71	0.332109
4710.90	21.65	0.310928
4715.00	21.60	0.361370
4719.10	21.52	0.356199
4723.20	21.46	0.363429
4727.30	21.39	0.338658
4731.40	21.33	0.379966
4735.50	21.28	0.403651
4739.60	21.21	0.415661
4743.70	21.15	0.405971
4747.80	21.07	0.425119
4751.90	20.98	0.378475
4756.00	20.90	0.358208
4760.10	20.78	0.296272
4764.20	20.67	0.190881
4768.30	20.57	0.121521
4772.40	20.48	0.0822119
4776.50	20.41	0.0582203
4780.60	20.33	0.0461318
4784.70	20.26	0.0388903
4788.80	20.19	0.0356474
4792.90	20.12	0.0334946
4797.00	20.05	0.0323709
4801.10	19.98	0.0314261
4805.20	19.92	0.0304738
4809.30	19.85	0.0296470
4813.40	19.78	0.0289843
4817.50	19.71	0.0283985
4821.60	19.64	0.0279323
4825.70	19.57	0.0275347
4829.80	19.50	0.0271862
4833.90	19.44	0.0268947
4838.00	19.37	0.0266244
4842.10	19.30	0.0264330
4846.20	19.23	0.0262258
4850.30	19.16	0.0260608
4854.40	19.10	0.0259194
4858.50	19.03	0.0258013
4862.60	18.96	0.0256870
4866.70	18.89	0.0255708
4870.80	18.82	0.0254751
4874.90	18.75	0.0254209
4879.00	18.68	0.0253556
4883.10	18.62	0.0252499
4887.20	18.55	0.0251812
4891.30	18.48	0.0251440
4895.40	18.41	0.0250293
4899.50	18.34	0.0249670
4903.60	18.28	0.0248972
4907.70	18.21	0.0248397
4911.80	18.14	0.0247689
4915.90	18.07	0.0247154
4920.00	18.00	0.0246953
4924.10	17.93	0.0246720
4928.20	17.86	0.0246064
4932.30	17.79	0.0245442
4936.40	17.73	0.0244937
4940.50	17.66	0.0244680
4944.60	17.59	0.0244136
4948.70	17.52	0.0243634
4952.80	17.45	0.0243146
4956.90	17.39	0.0242721
4961.00	17.32	0.0242216
4965.10	17.25	0.0241891
4969.20	17.18	0.0241740
4973.30	17.11	0.0241075
4977.40	17.04	0.0240803
4981.50	16.98	0.0240216
4985.60	16.91	0.0240021
4989.70	16.84	0.0239405
4993.80	16.77	0.0239184
4997.90	16.70	0.0238112
5002.00	16.63	0.0237873
5006.10	16.57	0.0237794
5010.20	16.50	0.0237772
5014.30	16.43	0.0237235
5018.40	16.36	0.0237095
5022.50	16.29	0.0236755
5026.60	16.22	0.0236483
5030.70	16.16	0.0235779
5034.80	16.09	0.0235297
5038.90	16.02	0.0234761
5043.00	15.95	0.0234556
5047.10	15.88	0.0233864
5051.20	15.81	0.0233278
5055.30	15.75	0.0233068
5059.40	15.68	0.0232714
5063.50	15.61	0.0232495
5067.60	15.54	0.0231915
5071.70	15.47	0.0231755
5075.80	15.40	0.0231257
5079.90	15.34	0.0230706
5084.00	15.27	0.0230244
5088.10	15.20	0.0229792
5092.20	15.13	0.0229171
5096.30	15.06	0.0228862
5100.40	14.99	0.0228225
5104.50	14.92	0.0227971
5108.60	14.86	0.0227377
5112.70	14.79	0.0226996
5116.80	14.72	0.0226622
5120.90	14.65	0.0226442
5125.00	14.58	0.0225916
5129.10	14.51	0.0225275
5133.20	14.45	0.0224896
5137.30	14.38	0.0224580
5141.40	14.31	0.0223941
5145.50	14.24	0.0223593
5149.60	14.17	0.0223146
5153.70	14.11	0.0222476
5157.80	14.04	0.0222182
5161.90	13.97	0.0221736
5166.00	13.90	0.0221373
5170.10	13.83	0.0221010
5174.20	13.76	0.0220656
5178.30	13.70	0.0220020
5182.40	13.63	0.0219436
5186.50	13.56	0.0219558
5190.60	13.49	0.0219064
5194.70	13.42	0.0218802
5198.80	13.35	0.0218392
5202.90	13.29	0.0217984
5207.00	13.22	0.0217704
5211.10	13.15	0.0217450
5215.20	13.08	0.0217376
5219.30	13.01	0.0216952
5223.40	12.94	0.0216097
5227.50	12.87	0.0216054
5231.60	12.81	0.0215848
5235.70	12.74	0.0215588
5239.80	12.67	0.0215334
5243.90	12.60	0.0215211
5248.00	12.53	0.0214935
5252.10	12.47	0.0215163
5256.20	12.40	0.0214501
5260.30	12.33	0.0214297
5264.40	12.26	0.0213640
5268.50	12.19	0.0213492
5272.60	12.12	0.0213049
5276.70	12.05	0.0212741
5280.80	11.99	0.0212818
5284.90	11.92	0.0212600
5289.00	11.85	0.0212450
5293.10	11.78	0.0211882
5297.20	11.71	0.0211597
5301.30	11.64	0.0211203
5305.40	11.58	0.0210869
5309.50	11.51	0.0210377
5313.60	11.44	0.0210072
5317.70	11.37	0.0209806
5321.80	11.30	0.0209991
5325.90	11.23	0.0209757
5330.00	11.17	0.0209414
5334.10	11.10	0.0209178
5338.20	11.03	0.0208900
5342.30	10.96	0.0208990
5346.40	10.89	0.0208644
5350.50	10.82	0.0208480
5354.60	10.76	0.0207605
5358.70	10.69	0.0207160
5362.80	10.62	0.0206710
5366.90	10.55	0.0206625
5371.00	10.48	0.0205992
5375.10	10.41	0.0205579
5379.20	10.35	0.0205568
5383.30	10.28	0.0204980
5387.40	10.21	0.0204782
5391.50	10.14	0.0205076
5395.60	10.07	0.0204880
5399.70	10.01	0.0204579
5403.80	9.94	0.0204290
5407.90	9.87	0.0203903
5412.00	9.80	0.0203654
5416.10	9.73	0.0203614
5420.20	9.66	0.0203434
5424.30	9.60	0.0203124
5428.40	9.53	0.0202566
5432.50	9.46	0.0202105
5436.60	9.39	0.0201997
5440.70	9.32	0.0201743
5444.80	9.25	0.0201574
5448.90	9.18	0.0201917
5453.00	9.12	0.0201792
5457.10	9.05	0.0201511
5461.20	8.98	0.0201330
5465.30	8.91	0.0201021
5469.40	8.84	0.0201118
5473.50	8.77	0.0200708
5477.60	8.71	0.0200727
5481.70	8.64	0.0200406
5485.80	8.57	0.0200162
5489.90	8.50	0.0200074
5494.00	8.43	0.0199831
5498.10	8.36	0.0199614
5502.20	8.30	0.0199480
5506.30	8.23	0.0199145
5510.40	8.16	0.0198906
5514.50	8.09	0.0198993
5518.60	8.02	0.0198787
5522.70	7.95	0.0198485
5526.80	7.88	0.0198275
5530.90	7.82	0.0197772
5535.00	7.75	0.0197702
5539.10	7.68	0.0197842
5543.20	7.61	0.0197625
5547.30	7.54	0.0197123
5551.40	7.47	0.0197043
5555.50	7.41	0.0196872
5559.60	7.34	0.0196680
5563.70	7.27	0.0196226
5567.80	7.20	0.0196217
5571.90	7.13	0.0196032
5576.00	7.07	0.0196016
5580.10	7.00	0.0195751
5584.20	6.93	0.0195594
5588.30	6.86	0.0195317
5592.40	6.79	0.0194929
5596.50	6.72	0.0194599
5600.60	6.66	0.0194561
5604.70	6.59	0.0194622
5608.80	6.52	0.0194716
5612.90	6.45	0.0194421
5617.00	6.38	0.0194351
5621.10	6.31	0.0193951
5625.20	6.25	0.0193853
5629.30	6.18	0.0193793
5633.40	6.11	0.0193442
5637.50	6.04	0.0193243
5641.60	5.97	0.0192932
5645.70	5.90	0.0192819
5649.80	5.84	0.0192563
5653.90	5.77	0.0192330
5658.00	5.70	0.0192275
5662.10	5.63	0.0192334
5666.20	5.56	0.0192345
5670.30	5.50	0.0192460
5674.40	5.43	0.0192195
5678.50	5.36	0.0192442
5682.60	5.29	0.0192275
5686.70	5.22	0.0192108
5690.80	5.15	0.0191620
5694.90	5.08	0.0191257
5699.00	5.02	0.0191344
5703.10	4.95	0.0191185
5707.20	4.88	0.0191195
5711.30	4.81	0.0191027
5715.40	4.74	0.0190639
5719.50	4.67	0.0190613
5723.60	4.60	0.0190400
5727.70	4.54	0.0190082
5731.80	4.47	0.0189994
5735.90	4.40	0.0189820
5740.00	4.33	0.0189810
5744.10	4.26	0.0189370
5748.20	4.20	0.0189295
5752.30	4.13	0.0189047
5756.40	4.06	0.0188921
5760.50	3.99	0.0188850
5764.60	3.92	0.0188809
5768.70	3.86	0.0188600
5772.80	3.79	0.0188110
5776.90	3.72	0.0187975
5781.00	3.65	0.0187776
5785.10	3.58	0.0187804
5789.20	3.51	0.0187630
5793.30	3.45	0.0187718
5797.40	3.38	0.0187875
5801.50	3.31	0.0188198
5805.60	3.24	0.0188265
5809.70	3.17	0.0188199
5813.80	3.10	0.0188290
5817.90	3.03	0.0188054
5822.00	2.97	0.0188124
5826.10	2.90	0.0187836
5830.20	2.83	0.0187861
5834.30	2.76	0.0187726
5838.40	2.69	0.0187650
5842.50	2.62	0.0187420
5846.60	2.55	0.0187451
5850.70	2.49	0.0187085
5854.80	2.42	0.0186869
5858.90	2.35	0.0186790
5863.00	2.28	0.0186793
5867.10	2.21	0.0186442
5871.20	2.15	0.0186548
5875.30	2.08	0.0186214
5879.40	2.01	0.0185875
5883.50	1.94	0.0185411
5887.60	1.87	0.0184942
5891.70	1.81	0.0184908
5895.80	1.74	0.0184934
5899.90	1.67	0.0184836
5904.00	1.60	0.0184891
5908.10	1.53	0.0185044
5912.20	1.46	0.0185258
5916.30	1.39	0.0185674
5920.40	1.33	0.0185735
5924.50	1.26	0.0185810
5928.60	1.19	0.0185814
5932.70	1.12	0.0185623
5936.80	1.05	0.0185835
5940.90	0.98	0.0185778
5945.00	0.91	0.0185897
5949.10	0.85	0.0185410
5953.20	0.78	0.0185533
5957.30	0.71	0.0185206
5961.40	0.64	0.0185453
5965.50	0.57	0.0185146
5969.60	0.50	0.0184753
5973.70	0.44	0.0184383
5977.80	0.37	0.0184150
5981.90	0.30	0.0183850
5986.00	0.23	0.0183512
5990.10	0.16	0.0183260
5994.20	0.09	0.0183046
5998.30	0.03	0.0182901
6000.00	0.00	0.0182903