File: Differential scanning calorimetry/8OCB Squalane/8OCB SqA wt fraction 133.txt
Filename	8OCBSA133
Instrument name	DSC2A-00101 (192.168.10.4)
Operator	Yuma
rundate	5/28/2021
Sample name	8OCBSA133
proceduresegments	Data Off ; Equilibrate 150.00 °C; Isothermal 10.0 min; Equilibrate 100.00 °C; Isothermal 5.0 min; Data On ; Ramp 1.00 °C/min to 0.00 °C; Ramp 5.00 °C/min to 150.00 °C; Data Off ; Isothermal 10.0 min; Modulate Temperature 1.00 °C for 60.0 s; Equilibrate 100.00 °C; Isothermal 10.0 min; Data On ; Ramp 1.00 °C/min to 0.00 °C; Ramp 3.00 °C/min to 100.00 °C; Jump 30.00 °C
[step]
Ramp 1.00 °C/min to 0.00 °C
Time	Temperature	Heat Flow (Normalized)
s	°C	W/g
0.00000	99.84	6.47741e-3
4.00000	99.83	6.65218e-3
8.00000	99.80	4.36756e-3
12.0000	99.76	4.92775e-3
16.0000	99.70	0.0150014
20.0000	99.64	0.0218517
24.0000	99.58	0.0260961
28.0000	99.52	0.0288300
32.0000	99.45	0.0302982
36.0000	99.39	0.0314822
40.0000	99.32	0.0322173
44.0000	99.25	0.0329171
48.0000	99.19	0.0334227
52.0000	99.12	0.0338234
56.0000	99.06	0.0341337
60.0000	98.99	0.0344327
64.0000	98.92	0.0346976
68.0000	98.86	0.0348372
72.0000	98.79	0.0349245
76.0000	98.72	0.0350447
80.0000	98.66	0.0351196
84.0000	98.59	0.0351958
88.0000	98.52	0.0352523
92.0000	98.46	0.0352669
96.0000	98.39	0.0353114
100.000	98.32	0.0353173
104.000	98.26	0.0353685
108.000	98.19	0.0353883
112.000	98.12	0.0353815
116.000	98.06	0.0353892
120.000	97.99	0.0353964
124.000	97.92	0.0353846
128.000	97.86	0.0353315
132.000	97.79	0.0352957
136.000	97.72	0.0352876
140.000	97.66	0.0353086
144.000	97.59	0.0353170
148.000	97.52	0.0353278
152.000	97.46	0.0352784
156.000	97.39	0.0352116
160.000	97.33	0.0352019
164.000	97.26	0.0351899
168.000	97.19	0.0352245
172.000	97.12	0.0352380
176.000	97.06	0.0352359
180.000	96.99	0.0352857
184.000	96.92	0.0352946
188.000	96.86	0.0352980
192.000	96.79	0.0352688
196.000	96.72	0.0352824
200.000	96.66	0.0352992
204.000	96.59	0.0353223
208.000	96.52	0.0353193
212.000	96.46	0.0353202
216.000	96.39	0.0352925
220.000	96.32	0.0352751
224.000	96.26	0.0351688
228.000	96.19	0.0351972
232.000	96.12	0.0351343
236.000	96.06	0.0350907
240.000	95.99	0.0351076
244.000	95.92	0.0350600
248.000	95.86	0.0351266
252.000	95.79	0.0350746
256.000	95.72	0.0351100
260.000	95.66	0.0351099
264.000	95.59	0.0351011
268.000	95.52	0.0351039
272.000	95.46	0.0351202
276.000	95.39	0.0350687
280.000	95.32	0.0350796
284.000	95.26	0.0350921
288.000	95.19	0.0350559
292.000	95.12	0.0350390
296.000	95.06	0.0350673
300.000	94.99	0.0350876
304.000	94.92	0.0350596
308.000	94.86	0.0350542
312.000	94.79	0.0349979
316.000	94.73	0.0349771
320.000	94.66	0.0349474
324.000	94.59	0.0349478
328.000	94.52	0.0349376
332.000	94.46	0.0349631
336.000	94.39	0.0349428
340.000	94.32	0.0349681
344.000	94.26	0.0349814
348.000	94.19	0.0349424
352.000	94.12	0.0349278
356.000	94.06	0.0349193
360.000	93.99	0.0349685
364.000	93.93	0.0349279
368.000	93.86	0.0349533
372.000	93.79	0.0349106
376.000	93.72	0.0349321
380.000	93.66	0.0349559
384.000	93.59	0.0349725
388.000	93.52	0.0349779
392.000	93.46	0.0349320
396.000	93.39	0.0349117
400.000	93.33	0.0349225
404.000	93.26	0.0349366
408.000	93.19	0.0349178
412.000	93.12	0.0348980
416.000	93.06	0.0348966
420.000	92.99	0.0348554
424.000	92.93	0.0348094
428.000	92.86	0.0347893
432.000	92.79	0.0348091
436.000	92.73	0.0348043
440.000	92.66	0.0348081
444.000	92.59	0.0347974
448.000	92.53	0.0348354
452.000	92.46	0.0348508
456.000	92.39	0.0348630
460.000	92.32	0.0348328
464.000	92.26	0.0348347
468.000	92.19	0.0348138
472.000	92.13	0.0348312
476.000	92.06	0.0347388
480.000	91.99	0.0347247
484.000	91.93	0.0347082
488.000	91.86	0.0346993
492.000	91.79	0.0346939
496.000	91.73	0.0346672
500.000	91.66	0.0346378
504.000	91.59	0.0346388
508.000	91.53	0.0346564
512.000	91.46	0.0346578
516.000	91.39	0.0346708
520.000	91.33	0.0346889
524.000	91.26	0.0346752
528.000	91.19	0.0346690
532.000	91.13	0.0346606
536.000	91.06	0.0347245
540.000	90.99	0.0347001
544.000	90.92	0.0347139
548.000	90.86	0.0347472
552.000	90.79	0.0347271
556.000	90.72	0.0347235
560.000	90.66	0.0347156
564.000	90.59	0.0347346
568.000	90.52	0.0346792
572.000	90.46	0.0346498
576.000	90.39	0.0346048
580.000	90.33	0.0345761
584.000	90.26	0.0345463
588.000	90.19	0.0345538
592.000	90.13	0.0345339
596.000	90.06	0.0345555
600.000	89.99	0.0345442
604.000	89.93	0.0345314
608.000	89.86	0.0345504
612.000	89.79	0.0345572
616.000	89.73	0.0345196
620.000	89.66	0.0345074
624.000	89.59	0.0345355
628.000	89.53	0.0345196
632.000	89.46	0.0345082
636.000	89.39	0.0345184
640.000	89.33	0.0344615
644.000	89.26	0.0344711
648.000	89.19	0.0344414
652.000	89.13	0.0344503
656.000	89.06	0.0344576
660.000	88.99	0.0344085
664.000	88.93	0.0344234
668.000	88.86	0.0344068
672.000	88.79	0.0344269
676.000	88.73	0.0344767
680.000	88.66	0.0344829
684.000	88.59	0.0344937
688.000	88.53	0.0344936
692.000	88.46	0.0344966
696.000	88.39	0.0344834
700.000	88.33	0.0344879
704.000	88.26	0.0344555
708.000	88.19	0.0344199
712.000	88.12	0.0344301
716.000	88.06	0.0344117
720.000	87.99	0.0344236
724.000	87.92	0.0344577
728.000	87.86	0.0344690
732.000	87.79	0.0344530
736.000	87.73	0.0344185
740.000	87.66	0.0343849
744.000	87.59	0.0343960
748.000	87.53	0.0343952
752.000	87.46	0.0343639
756.000	87.39	0.0343311
760.000	87.33	0.0343388
764.000	87.26	0.0343530
768.000	87.19	0.0343349
772.000	87.13	0.0343394
776.000	87.06	0.0343535
780.000	86.99	0.0343774
784.000	86.93	0.0343788
788.000	86.86	0.0343716
792.000	86.79	0.0343775
796.000	86.73	0.0343275
800.000	86.66	0.0343643
804.000	86.59	0.0343559
808.000	86.53	0.0343395
812.000	86.46	0.0343273
816.000	86.39	0.0343327
820.000	86.33	0.0343240
824.000	86.26	0.0342830
828.000	86.19	0.0342438
832.000	86.13	0.0342477
836.000	86.06	0.0342003
840.000	85.99	0.0341831
844.000	85.93	0.0342090
848.000	85.86	0.0342059
852.000	85.79	0.0342136
856.000	85.73	0.0341855
860.000	85.66	0.0341989
864.000	85.59	0.0341899
868.000	85.53	0.0342027
872.000	85.46	0.0341845
876.000	85.39	0.0342181
880.000	85.33	0.0341595
884.000	85.26	0.0341616
888.000	85.19	0.0341579
892.000	85.13	0.0341800
896.000	85.06	0.0341440
900.000	84.99	0.0341395
904.000	84.93	0.0341616
908.000	84.86	0.0341592
912.000	84.79	0.0341157
916.000	84.73	0.0341346
920.000	84.66	0.0341366
924.000	84.59	0.0341228
928.000	84.53	0.0340891
932.000	84.46	0.0340911
936.000	84.39	0.0340821
940.000	84.33	0.0340689
944.000	84.26	0.0340797
948.000	84.19	0.0339990
952.000	84.13	0.0340418
956.000	84.06	0.0340186
960.000	83.99	0.0340139
964.000	83.93	0.0339855
968.000	83.86	0.0340284
972.000	83.79	0.0340155
976.000	83.73	0.0340220
980.000	83.66	0.0340442
984.000	83.59	0.0340211
988.000	83.53	0.0340268
992.000	83.46	0.0340065
996.000	83.39	0.0340149
1000.00	83.33	0.0340698
1004.00	83.26	0.0340298
1008.00	83.19	0.0340229
1012.00	83.13	0.0340055
1016.00	83.06	0.0339499
1020.00	82.99	0.0339776
1024.00	82.93	0.0339677
1028.00	82.86	0.0339982
1032.00	82.79	0.0340231
1036.00	82.73	0.0340183
1040.00	82.66	0.0340171
1044.00	82.59	0.0339995
1048.00	82.53	0.0339608
1052.00	82.46	0.0339471
1056.00	82.39	0.0339170
1060.00	82.33	0.0339178
1064.00	82.26	0.0339168
1068.00	82.19	0.0338992
1072.00	82.13	0.0339027
1076.00	82.06	0.0338981
1080.00	81.99	0.0338807
1084.00	81.93	0.0338808
1088.00	81.86	0.0338766
1092.00	81.79	0.0339001
1096.00	81.73	0.0339050
1100.00	81.66	0.0339599
1104.00	81.59	0.0339481
1108.00	81.53	0.0339684
1112.00	81.46	0.0339634
1116.00	81.39	0.0339652
1120.00	81.33	0.0339566
1124.00	81.26	0.0339481
1128.00	81.19	0.0339635
1132.00	81.13	0.0339528
1136.00	81.06	0.0339338
1140.00	80.99	0.0338994
1144.00	80.93	0.0338752
1148.00	80.86	0.0338819
1152.00	80.79	0.0338573
1156.00	80.73	0.0338207
1160.00	80.66	0.0338342
1164.00	80.59	0.0338267
1168.00	80.53	0.0338439
1172.00	80.46	0.0338315
1176.00	80.39	0.0338151
1180.00	80.33	0.0338077
1184.00	80.26	0.0338166
1188.00	80.19	0.0338230
1192.00	80.13	0.0338372
1196.00	80.06	0.0338467
1200.00	80.00	0.0338435
1204.00	79.93	0.0337972
1208.00	79.86	0.0338096
1212.00	79.79	0.0338427
1216.00	79.73	0.0338199
1220.00	79.66	0.0338235
1224.00	79.59	0.0338183
1228.00	79.53	0.0338300
1232.00	79.46	0.0338200
1236.00	79.39	0.0338239
1240.00	79.33	0.0338552
1244.00	79.26	0.0338713
1248.00	79.19	0.0338284
1252.00	79.13	0.0338686
1256.00	79.06	0.0338869
1260.00	78.99	0.0338595
1264.00	78.93	0.0338460
1268.00	78.86	0.0338326
1272.00	78.79	0.0338419
1276.00	78.73	0.0338323
1280.00	78.66	0.0338319
1284.00	78.59	0.0338024
1288.00	78.53	0.0338099
1292.00	78.46	0.0337698
1296.00	78.39	0.0338010
1300.00	78.33	0.0337937
1304.00	78.26	0.0337855
1308.00	78.20	0.0338142
1312.00	78.13	0.0337915
1316.00	78.06	0.0338144
1320.00	77.99	0.0338104
1324.00	77.93	0.0337947
1328.00	77.86	0.0337820
1332.00	77.79	0.0337625
1336.00	77.73	0.0337561
1340.00	77.66	0.0337585
1344.00	77.60	0.0337920
1348.00	77.53	0.0338052
1352.00	77.46	0.0338031
1356.00	77.39	0.0337926
1360.00	77.33	0.0337713
1364.00	77.26	0.0337613
1368.00	77.19	0.0337684
1372.00	77.13	0.0338117
1376.00	77.06	0.0337902
1380.00	76.99	0.0338101
1384.00	76.93	0.0338071
1388.00	76.86	0.0337731
1392.00	76.80	0.0337746
1396.00	76.73	0.0337590
1400.00	76.66	0.0337678
1404.00	76.59	0.0337273
1408.00	76.53	0.0337497
1412.00	76.46	0.0337796
1416.00	76.39	0.0337936
1420.00	76.33	0.0337715
1424.00	76.26	0.0337880
1428.00	76.19	0.0337787
1432.00	76.13	0.0337417
1436.00	76.06	0.0337548
1440.00	76.00	0.0337765
1444.00	75.93	0.0337550
1448.00	75.86	0.0337568
1452.00	75.79	0.0337388
1456.00	75.73	0.0337344
1460.00	75.66	0.0337379
1464.00	75.59	0.0337488
1468.00	75.53	0.0337211
1472.00	75.46	0.0337285
1476.00	75.40	0.0337271
1480.00	75.33	0.0337421
1484.00	75.26	0.0337373
1488.00	75.20	0.0337319
1492.00	75.13	0.0337474
1496.00	75.06	0.0337232
1500.00	74.99	0.0337127
1504.00	74.93	0.0337552
1508.00	74.86	0.0337493
1512.00	74.79	0.0337725
1516.00	74.73	0.0337959
1520.00	74.66	0.0337843
1524.00	74.59	0.0337807
1528.00	74.53	0.0338119
1532.00	74.46	0.0337601
1536.00	74.40	0.0337908
1540.00	74.33	0.0337574
1544.00	74.26	0.0337212
1548.00	74.20	0.0337070
1552.00	74.13	0.0337032
1556.00	74.06	0.0337560
1560.00	74.00	0.0337336
1564.00	73.93	0.0338131
1568.00	73.86	0.0337879
1572.00	73.80	0.0338121
1576.00	73.73	0.0337817
1580.00	73.66	0.0338061
1584.00	73.59	0.0338326
1588.00	73.53	0.0338410
1592.00	73.46	0.0338179
1596.00	73.40	0.0337668
1600.00	73.33	0.0337688
1604.00	73.26	0.0337803
1608.00	73.19	0.0338448
1612.00	73.13	0.0338338
1616.00	73.06	0.0338411
1620.00	73.00	0.0338499
1624.00	72.93	0.0338706
1628.00	72.86	0.0338749
1632.00	72.80	0.0339117
1636.00	72.73	0.0338611
1640.00	72.66	0.0338538
1644.00	72.59	0.0338516
1648.00	72.53	0.0338915
1652.00	72.46	0.0338433
1656.00	72.40	0.0338317
1660.00	72.33	0.0338623
1664.00	72.26	0.0338566
1668.00	72.20	0.0338533
1672.00	72.13	0.0337976
1676.00	72.06	0.0338681
1680.00	72.00	0.0339048
1684.00	71.93	0.0338684
1688.00	71.86	0.0338612
1692.00	71.80	0.0338441
1696.00	71.73	0.0338558
1700.00	71.66	0.0338417
1704.00	71.60	0.0338491
1708.00	71.53	0.0338846
1712.00	71.46	0.0338716
1716.00	71.40	0.0338878
1720.00	71.33	0.0339124
1724.00	71.26	0.0339142
1728.00	71.20	0.0339239
1732.00	71.13	0.0339223
1736.00	71.06	0.0339183
1740.00	71.00	0.0339295
1744.00	70.93	0.0339082
1748.00	70.86	0.0339214
1752.00	70.80	0.0339089
1756.00	70.73	0.0339380
1760.00	70.66	0.0339550
1764.00	70.60	0.0339391
1768.00	70.53	0.0339393
1772.00	70.46	0.0339155
1776.00	70.40	0.0339018
1780.00	70.33	0.0339000
1784.00	70.26	0.0339029
1788.00	70.20	0.0338933
1792.00	70.13	0.0338951
1796.00	70.06	0.0339362
1800.00	70.00	0.0339713
1804.00	69.93	0.0339886
1808.00	69.86	0.0339673
1812.00	69.80	0.0339867
1816.00	69.73	0.0339813
1820.00	69.66	0.0339792
1824.00	69.60	0.0339478
1828.00	69.53	0.0339922
1832.00	69.46	0.0339942
1836.00	69.40	0.0340074
1840.00	69.33	0.0340566
1844.00	69.26	0.0340540
1848.00	69.20	0.0340604
1852.00	69.13	0.0340758
1856.00	69.06	0.0340826
1860.00	69.00	0.0340732
1864.00	68.93	0.0340773
1868.00	68.86	0.0340679
1872.00	68.80	0.0340873
1876.00	68.73	0.0341156
1880.00	68.66	0.0341148
1884.00	68.60	0.0341482
1888.00	68.53	0.0341455
1892.00	68.46	0.0341268
1896.00	68.40	0.0341406
1900.00	68.33	0.0341544
1904.00	68.26	0.0341611
1908.00	68.20	0.0341575
1912.00	68.13	0.0342220
1916.00	68.06	0.0342441
1920.00	68.00	0.0342168
1924.00	67.93	0.0342438
1928.00	67.86	0.0342585
1932.00	67.80	0.0343019
1936.00	67.73	0.0343505
1940.00	67.66	0.0343694
1944.00	67.60	0.0343832
1948.00	67.53	0.0343997
1952.00	67.46	0.0344613
1956.00	67.40	0.0344789
1960.00	67.33	0.0345196
1964.00	67.26	0.0344971
1968.00	67.20	0.0345294
1972.00	67.13	0.0345165
1976.00	67.06	0.0345240
1980.00	67.00	0.0345610
1984.00	66.93	0.0345481
1988.00	66.86	0.0345473
1992.00	66.80	0.0345622
1996.00	66.73	0.0345880
2000.00	66.66	0.0346044
2004.00	66.60	0.0346363
2008.00	66.53	0.0346417
2012.00	66.46	0.0346766
2016.00	66.40	0.0347118
2020.00	66.33	0.0347487
2024.00	66.26	0.0348039
2028.00	66.20	0.0347876
2032.00	66.13	0.0348230
2036.00	66.07	0.0348268
2040.00	66.00	0.0348063
2044.00	65.93	0.0348595
2048.00	65.87	0.0349298
2052.00	65.80	0.0349239
2056.00	65.73	0.0349710
2060.00	65.66	0.0350390
2064.00	65.60	0.0350932
2068.00	65.53	0.0351361
2072.00	65.46	0.0352057
2076.00	65.40	0.0352633
2080.00	65.33	0.0352825
2084.00	65.27	0.0353234
2088.00	65.20	0.0353657
2092.00	65.13	0.0354473
2096.00	65.06	0.0355001
2100.00	65.00	0.0355015
2104.00	64.93	0.0355218
2108.00	64.87	0.0356021
2112.00	64.80	0.0356831
2116.00	64.73	0.0357792
2120.00	64.67	0.0358466
2124.00	64.60	0.0359227
2128.00	64.53	0.0360138
2132.00	64.47	0.0361187
2136.00	64.40	0.0362193
2140.00	64.33	0.0363194
2144.00	64.27	0.0364576
2148.00	64.20	0.0365896
2152.00	64.13	0.0367201
2156.00	64.07	0.0368627
2160.00	64.00	0.0370186
2164.00	63.93	0.0372466
2168.00	63.87	0.0377750
2172.00	63.80	0.0392458
2176.00	63.74	0.0422486
2180.00	63.67	0.0445753
2184.00	63.61	0.0458756
2188.00	63.54	0.0469675
2192.00	63.47	0.0478222
2196.00	63.41	0.0483678
2200.00	63.34	0.0486503
2204.00	63.27	0.0487495
2208.00	63.20	0.0487672
2212.00	63.14	0.0486505
2216.00	63.07	0.0484835
2220.00	63.00	0.0483091
2224.00	62.94	0.0480964
2228.00	62.87	0.0478835
2232.00	62.80	0.0476619
2236.00	62.74	0.0474481
2240.00	62.67	0.0472398
2244.00	62.60	0.0469407
2248.00	62.54	0.0466730
2252.00	62.47	0.0463895
2256.00	62.40	0.0460762
2260.00	62.34	0.0457723
2264.00	62.27	0.0454917
2268.00	62.20	0.0452352
2272.00	62.14	0.0450519
2276.00	62.07	0.0448994
2280.00	62.00	0.0448147
2284.00	61.94	0.0447726
2288.00	61.87	0.0447597
2292.00	61.80	0.0447098
2296.00	61.74	0.0446172
2300.00	61.67	0.0445043
2304.00	61.60	0.0444016
2308.00	61.54	0.0442440
2312.00	61.47	0.0440433
2316.00	61.40	0.0438469
2320.00	61.34	0.0436375
2324.00	61.27	0.0434503
2328.00	61.20	0.0432724
2332.00	61.14	0.0431447
2336.00	61.07	0.0430157
2340.00	61.00	0.0428194
2344.00	60.94	0.0426825
2348.00	60.87	0.0425652
2352.00	60.80	0.0424222
2356.00	60.73	0.0423414
2360.00	60.67	0.0421703
2364.00	60.60	0.0420265
2368.00	60.53	0.0419050
2372.00	60.47	0.0418024
2376.00	60.40	0.0417513
2380.00	60.34	0.0415807
2384.00	60.27	0.0415472
2388.00	60.20	0.0415362
2392.00	60.14	0.0415280
2396.00	60.07	0.0415080
2400.00	60.00	0.0414762
2404.00	59.94	0.0415024
2408.00	59.87	0.0414530
2412.00	59.80	0.0414216
2416.00	59.73	0.0414179
2420.00	59.67	0.0414250
2424.00	59.61	0.0416517
2428.00	59.54	0.0484501
2432.00	59.48	0.0733112
2436.00	59.41	0.0683399
2440.00	59.34	0.0541566
2444.00	59.27	0.0482576
2448.00	59.20	0.0460830
2452.00	59.14	0.0458412
2456.00	59.07	0.0459441
2460.00	59.01	0.0462606
2464.00	58.94	0.0464897
2468.00	58.87	0.0469146
2472.00	58.81	0.0476121
2476.00	58.74	0.0484554
2480.00	58.67	0.0490982
2484.00	58.61	0.0494010
2488.00	58.54	0.0492247
2492.00	58.47	0.0487631
2496.00	58.40	0.0481470
2500.00	58.34	0.0475474
2504.00	58.27	0.0469471
2508.00	58.20	0.0464588
2512.00	58.14	0.0460718
2516.00	58.07	0.0457115
2520.00	58.00	0.0455022
2524.00	57.94	0.0453890
2528.00	57.87	0.0454273
2532.00	57.81	0.0456271
2536.00	57.74	0.0464116
2540.00	57.67	0.0479022
2544.00	57.61	0.0485059
2548.00	57.54	0.0483004
2552.00	57.47	0.0475953
2556.00	57.40	0.0464050
2560.00	57.34	0.0453025
2564.00	57.27	0.0441430
2568.00	57.20	0.0430047
2572.00	57.13	0.0418984
2576.00	57.07	0.0409634
2580.00	57.00	0.0401670
2584.00	56.93	0.0394534
2588.00	56.87	0.0388413
2592.00	56.80	0.0382810
2596.00	56.73	0.0377829
2600.00	56.67	0.0373977
2604.00	56.60	0.0370434
2608.00	56.53	0.0366811
2612.00	56.47	0.0363889
2616.00	56.40	0.0360931
2620.00	56.33	0.0358564
2624.00	56.27	0.0356649
2628.00	56.20	0.0354842
2632.00	56.13	0.0352982
2636.00	56.07	0.0351235
2640.00	56.00	0.0349943
2644.00	55.93	0.0348186
2648.00	55.87	0.0347386
2652.00	55.80	0.0345948
2656.00	55.73	0.0344989
2660.00	55.67	0.0343706
2664.00	55.60	0.0342987
2668.00	55.53	0.0341633
2672.00	55.47	0.0340548
2676.00	55.40	0.0340047
2680.00	55.33	0.0339291
2684.00	55.27	0.0338699
2688.00	55.20	0.0337934
2692.00	55.13	0.0337250
2696.00	55.06	0.0336503
2700.00	55.00	0.0335522
2704.00	54.93	0.0334807
2708.00	54.87	0.0333978
2712.00	54.80	0.0333424
2716.00	54.73	0.0332885
2720.00	54.67	0.0332329
2724.00	54.60	0.0332073
2728.00	54.53	0.0331531
2732.00	54.46	0.0331062
2736.00	54.40	0.0330463
2740.00	54.33	0.0329637
2744.00	54.26	0.0329138
2748.00	54.20	0.0328514
2752.00	54.13	0.0327697
2756.00	54.06	0.0327053
2760.00	54.00	0.0326496
2764.00	53.93	0.0326207
2768.00	53.87	0.0325812
2772.00	53.80	0.0325189
2776.00	53.73	0.0324589
2780.00	53.67	0.0324571
2784.00	53.60	0.0324028
2788.00	53.53	0.0323737
2792.00	53.46	0.0323303
2796.00	53.40	0.0322957
2800.00	53.33	0.0322314
2804.00	53.27	0.0322039
2808.00	53.20	0.0321460
2812.00	53.13	0.0320998
2816.00	53.06	0.0320861
2820.00	53.00	0.0320335
2824.00	52.93	0.0320045
2828.00	52.87	0.0319629
2832.00	52.80	0.0319688
2836.00	52.73	0.0319697
2840.00	52.67	0.0319647
2844.00	52.60	0.0319036
2848.00	52.53	0.0318928
2852.00	52.47	0.0318735
2856.00	52.40	0.0318208
2860.00	52.33	0.0318187
2864.00	52.27	0.0318048
2868.00	52.20	0.0317516
2872.00	52.13	0.0317226
2876.00	52.06	0.0316592
2880.00	52.00	0.0316320
2884.00	51.93	0.0316129
2888.00	51.86	0.0316060
2892.00	51.80	0.0315756
2896.00	51.73	0.0315473
2900.00	51.67	0.0315387
2904.00	51.60	0.0315084
2908.00	51.53	0.0314607
2912.00	51.47	0.0314153
2916.00	51.40	0.0313792
2920.00	51.33	0.0313749
2924.00	51.27	0.0313805
2928.00	51.20	0.0313113
2932.00	51.13	0.0313215
2936.00	51.07	0.0312799
2940.00	51.00	0.0312839
2944.00	50.93	0.0312215
2948.00	50.87	0.0311660
2952.00	50.80	0.0311296
2956.00	50.73	0.0311082
2960.00	50.67	0.0311154
2964.00	50.60	0.0310965
2968.00	50.53	0.0310740
2972.00	50.47	0.0310368
2976.00	50.40	0.0310209
2980.00	50.33	0.0309945
2984.00	50.27	0.0310042
2988.00	50.20	0.0309630
2992.00	50.13	0.0309626
2996.00	50.06	0.0309297
3000.00	50.00	0.0308822
3004.00	49.93	0.0308613
3008.00	49.87	0.0308374
3012.00	49.80	0.0308246
3016.00	49.73	0.0308102
3020.00	49.67	0.0307873
3024.00	49.60	0.0307848
3028.00	49.53	0.0307619
3032.00	49.46	0.0307786
3036.00	49.40	0.0307540
3040.00	49.33	0.0307213
3044.00	49.27	0.0306830
3048.00	49.20	0.0306932
3052.00	49.13	0.0306403
3056.00	49.07	0.0305960
3060.00	49.00	0.0305608
3064.00	48.93	0.0305681
3068.00	48.86	0.0305555
3072.00	48.80	0.0305543
3076.00	48.73	0.0305021
3080.00	48.66	0.0305029
3084.00	48.60	0.0304791
3088.00	48.53	0.0304767
3092.00	48.47	0.0304775
3096.00	48.40	0.0304564
3100.00	48.33	0.0304296
3104.00	48.26	0.0303948
3108.00	48.20	0.0303879
3112.00	48.13	0.0303481
3116.00	48.06	0.0303442
3120.00	48.00	0.0303483
3124.00	47.93	0.0303153
3128.00	47.87	0.0303102
3132.00	47.80	0.0303101
3136.00	47.73	0.0303213
3140.00	47.67	0.0302864
3144.00	47.60	0.0303271
3148.00	47.53	0.0303205
3152.00	47.47	0.0303297
3156.00	47.40	0.0303138
3160.00	47.33	0.0303314
3164.00	47.27	0.0302999
3168.00	47.20	0.0302789
3172.00	47.13	0.0302129
3176.00	47.06	0.0301225
3180.00	47.00	0.0300790
3184.00	46.93	0.0300517
3188.00	46.87	0.0300485
3192.00	46.80	0.0299937
3196.00	46.73	0.0299583
3200.00	46.67	0.0299505
3204.00	46.60	0.0298996
3208.00	46.53	0.0298548
3212.00	46.46	0.0298636
3216.00	46.40	0.0298359
3220.00	46.33	0.0298299
3224.00	46.27	0.0298088
3228.00	46.20	0.0297848
3232.00	46.13	0.0298026
3236.00	46.06	0.0298020
3240.00	46.00	0.0297868
3244.00	45.93	0.0298160
3248.00	45.86	0.0297491
3252.00	45.80	0.0297707
3256.00	45.73	0.0297390
3260.00	45.67	0.0296624
3264.00	45.60	0.0296777
3268.00	45.53	0.0296824
3272.00	45.47	0.0296778
3276.00	45.40	0.0296625
3280.00	45.33	0.0296318
3284.00	45.27	0.0296153
3288.00	45.20	0.0295941
3292.00	45.13	0.0295613
3296.00	45.07	0.0295543
3300.00	45.00	0.0295504
3304.00	44.93	0.0295284
3308.00	44.87	0.0295438
3312.00	44.80	0.0294862
3316.00	44.73	0.0294777
3320.00	44.67	0.0294856
3324.00	44.60	0.0294636
3328.00	44.53	0.0294508
3332.00	44.47	0.0294631
3336.00	44.40	0.0294574
3340.00	44.33	0.0293899
3344.00	44.27	0.0293540
3348.00	44.20	0.0293829
3352.00	44.13	0.0293830
3356.00	44.07	0.0293418
3360.00	44.00	0.0293172
3364.00	43.93	0.0293286
3368.00	43.87	0.0292936
3372.00	43.80	0.0293445
3376.00	43.73	0.0292863
3380.00	43.67	0.0293037
3384.00	43.60	0.0293370
3388.00	43.53	0.0292886
3392.00	43.47	0.0292285
3396.00	43.40	0.0291998
3400.00	43.33	0.0292176
3404.00	43.27	0.0291855
3408.00	43.20	0.0291831
3412.00	43.13	0.0291581
3416.00	43.07	0.0291340
3420.00	43.00	0.0291528
3424.00	42.93	0.0291370
3428.00	42.87	0.0291366
3432.00	42.80	0.0291202
3436.00	42.73	0.0290853
3440.00	42.67	0.0290907
3444.00	42.60	0.0290660
3448.00	42.53	0.0290315
3452.00	42.46	0.0289905
3456.00	42.40	0.0289950
3460.00	42.33	0.0289963
3464.00	42.27	0.0289848
3468.00	42.20	0.0289795
3472.00	42.13	0.0289470
3476.00	42.07	0.0289250
3480.00	42.00	0.0289127
3484.00	41.93	0.0288944
3488.00	41.87	0.0288715
3492.00	41.80	0.0288824
3496.00	41.73	0.0288517
3500.00	41.67	0.0288165
3504.00	41.60	0.0288259
3508.00	41.53	0.0288182
3512.00	41.47	0.0288228
3516.00	41.40	0.0287872
3520.00	41.33	0.0287713
3524.00	41.26	0.0287592
3528.00	41.20	0.0287408
3532.00	41.13	0.0287517
3536.00	41.06	0.0286991
3540.00	41.00	0.0286824
3544.00	40.93	0.0286689
3548.00	40.87	0.0286574
3552.00	40.80	0.0286396
3556.00	40.73	0.0285806
3560.00	40.67	0.0285901
3564.00	40.60	0.0285618
3568.00	40.53	0.0286078
3572.00	40.47	0.0285958
3576.00	40.40	0.0285639
3580.00	40.33	0.0285754
3584.00	40.27	0.0285516
3588.00	40.20	0.0285733
3592.00	40.13	0.0285438
3596.00	40.07	0.0285071
3600.00	40.00	0.0284894
3604.00	39.93	0.0284386
3608.00	39.87	0.0284169
3612.00	39.80	0.0283836
3616.00	39.73	0.0284357
3620.00	39.67	0.0283916
3624.00	39.60	0.0283455
3628.00	39.53	0.0283454
3632.00	39.47	0.0283849
3636.00	39.40	0.0283733
3640.00	39.33	0.0283643
3644.00	39.27	0.0283249
3648.00	39.20	0.0283206
3652.00	39.13	0.0283066
3656.00	39.07	0.0282835
3660.00	39.00	0.0282864
3664.00	38.93	0.0282656
3668.00	38.87	0.0282627
3672.00	38.80	0.0282327
3676.00	38.73	0.0282328
3680.00	38.67	0.0282138
3684.00	38.60	0.0282009
3688.00	38.53	0.0281804
3692.00	38.47	0.0281638
3696.00	38.40	0.0281571
3700.00	38.33	0.0281479
3704.00	38.26	0.0281855
3708.00	38.20	0.0281854
3712.00	38.13	0.0281381
3716.00	38.07	0.0281189
3720.00	38.00	0.0281037
3724.00	37.93	0.0281151
3728.00	37.87	0.0280962
3732.00	37.80	0.0281094
3736.00	37.73	0.0281020
3740.00	37.66	0.0281133
3744.00	37.60	0.0281253
3748.00	37.53	0.0281427
3752.00	37.47	0.0280819
3756.00	37.40	0.0280585
3760.00	37.33	0.0280568
3764.00	37.27	0.0280358
3768.00	37.20	0.0280285
3772.00	37.13	0.0280043
3776.00	37.07	0.0280085
3780.00	37.00	0.0279718
3784.00	36.93	0.0279599
3788.00	36.87	0.0279060
3792.00	36.80	0.0279337
3796.00	36.73	0.0279052
3800.00	36.67	0.0278669
3804.00	36.60	0.0278909
3808.00	36.53	0.0278658
3812.00	36.47	0.0278609
3816.00	36.40	0.0278284
3820.00	36.33	0.0278207
3824.00	36.27	0.0278014
3828.00	36.20	0.0277892
3832.00	36.13	0.0277799
3836.00	36.07	0.0277703
3840.00	36.00	0.0277529
3844.00	35.93	0.0277393
3848.00	35.87	0.0277046
3852.00	35.80	0.0277033
3856.00	35.73	0.0276875
3860.00	35.67	0.0276796
3864.00	35.60	0.0277255
3868.00	35.53	0.0277201
3872.00	35.47	0.0276940
3876.00	35.40	0.0276427
3880.00	35.33	0.0276184
3884.00	35.27	0.0276146
3888.00	35.20	0.0275999
3892.00	35.13	0.0275821
3896.00	35.07	0.0275956
3900.00	35.00	0.0276044
3904.00	34.93	0.0275923
3908.00	34.87	0.0275703
3912.00	34.80	0.0275590
3916.00	34.73	0.0275193
3920.00	34.67	0.0275169
3924.00	34.60	0.0274880
3928.00	34.53	0.0274699
3932.00	34.47	0.0274818
3936.00	34.40	0.0274363
3940.00	34.33	0.0274502
3944.00	34.27	0.0274237
3948.00	34.20	0.0274397
3952.00	34.13	0.0274155
3956.00	34.07	0.0274144
3960.00	34.00	0.0274202
3964.00	33.93	0.0274018
3968.00	33.87	0.0273940
3972.00	33.80	0.0273629
3976.00	33.73	0.0273422
3980.00	33.67	0.0273400
3984.00	33.60	0.0273130
3988.00	33.53	0.0273002
3992.00	33.47	0.0273125
3996.00	33.40	0.0273383
4000.00	33.33	0.0272922
4004.00	33.27	0.0272465
4008.00	33.20	0.0272487
4012.00	33.13	0.0272454
4016.00	33.07	0.0272659
4020.00	33.00	0.0272361
4024.00	32.93	0.0272133
4028.00	32.87	0.0272088
4032.00	32.80	0.0271717
4036.00	32.73	0.0271398
4040.00	32.67	0.0271255
4044.00	32.60	0.0270911
4048.00	32.53	0.0271047
4052.00	32.47	0.0271171
4056.00	32.40	0.0270840
4060.00	32.33	0.0270660
4064.00	32.27	0.0270459
4068.00	32.20	0.0270080
4072.00	32.13	0.0270082
4076.00	32.07	0.0270188
4080.00	32.00	0.0270079
4084.00	31.93	0.0269954
4088.00	31.87	0.0270123
4092.00	31.80	0.0270252
4096.00	31.73	0.0269820
4100.00	31.67	0.0269866
4104.00	31.60	0.0269925
4108.00	31.53	0.0270107
4112.00	31.47	0.0269831
4116.00	31.40	0.0269648
4120.00	31.33	0.0269570
4124.00	31.27	0.0269540
4128.00	31.20	0.0269348
4132.00	31.13	0.0269203
4136.00	31.07	0.0268897
4140.00	31.00	0.0268696
4144.00	30.93	0.0268925
4148.00	30.87	0.0268725
4152.00	30.80	0.0268892
4156.00	30.73	0.0268590
4160.00	30.67	0.0268485
4164.00	30.60	0.0269023
4168.00	30.53	0.0268907
4172.00	30.47	0.0269220
4176.00	30.40	0.0269071
4180.00	30.33	0.0268822
4184.00	30.27	0.0269579
4188.00	30.20	0.0270238
4192.00	30.13	0.0270966
4196.00	30.07	0.0271660
4200.00	30.00	0.0272735
4204.00	29.93	0.0274819
4208.00	29.87	0.0267473
4212.00	29.81	0.0256730
4216.00	29.80	0.0668070
4220.00	29.83	0.192412
4224.00	29.93	0.483178
4228.00	29.98	0.837810
4232.00	29.94	0.938171
4236.00	29.86	0.925761
4240.00	29.78	0.900302
4244.00	29.69	0.864619
4248.00	29.62	0.845192
4252.00	29.56	0.843582
4256.00	29.52	0.868421
4260.00	29.48	0.918609
4264.00	29.46	0.985876
4268.00	29.47	1.12731
4272.00	29.46	1.27128
4276.00	29.41	1.37737
4280.00	29.24	1.30925
4284.00	28.96	0.905790
4288.00	28.73	0.514104
4292.00	28.57	0.291980
4296.00	28.46	0.169347
4300.00	28.36	0.103900
4304.00	28.28	0.0687173
4308.00	28.21	0.0497656
4312.00	28.14	0.0399393
4316.00	28.07	0.0340048
4320.00	28.00	0.0319697
4324.00	27.93	0.0305785
4328.00	27.87	0.0296080
4332.00	27.80	0.0287540
4336.00	27.73	0.0279308
4340.00	27.67	0.0272350
4344.00	27.60	0.0266510
4348.00	27.53	0.0261587
4352.00	27.46	0.0257272
4356.00	27.40	0.0253645
4360.00	27.33	0.0250514
4364.00	27.27	0.0247986
4368.00	27.20	0.0245927
4372.00	27.13	0.0244124
4376.00	27.07	0.0242431
4380.00	27.00	0.0240791
4384.00	26.93	0.0239244
4388.00	26.86	0.0238263
4392.00	26.80	0.0237080
4396.00	26.73	0.0236145
4400.00	26.66	0.0234746
4404.00	26.60	0.0234270
4408.00	26.53	0.0233068
4412.00	26.47	0.0231764
4416.00	26.40	0.0230571
4420.00	26.33	0.0229947
4424.00	26.26	0.0229521
4428.00	26.20	0.0229032
4432.00	26.13	0.0228403
4436.00	26.07	0.0227853
4440.00	26.00	0.0227029
4444.00	25.93	0.0226751
4448.00	25.87	0.0226338
4452.00	25.80	0.0225868
4456.00	25.73	0.0225500
4460.00	25.67	0.0224645
4464.00	25.60	0.0224376
4468.00	25.53	0.0223942
4472.00	25.46	0.0223517
4476.00	25.40	0.0223040
4480.00	25.33	0.0222663
4484.00	25.26	0.0222316
4488.00	25.20	0.0221924
4492.00	25.13	0.0221607
4496.00	25.06	0.0221128
4500.00	25.00	0.0221255
4504.00	24.93	0.0220550
4508.00	24.87	0.0219936
4512.00	24.80	0.0219630
4516.00	24.73	0.0219009
4520.00	24.66	0.0218730
4524.00	24.60	0.0217985
4528.00	24.53	0.0217751
4532.00	24.46	0.0217477
4536.00	24.40	0.0216913
4540.00	24.33	0.0216555
4544.00	24.26	0.0216366
4548.00	24.20	0.0216339
4552.00	24.13	0.0215946
4556.00	24.07	0.0215562
4560.00	24.00	0.0215219
4564.00	23.93	0.0214922
4568.00	23.86	0.0214682
4572.00	23.80	0.0214610
4576.00	23.73	0.0214384
4580.00	23.66	0.0213946
4584.00	23.60	0.0213738
4588.00	23.53	0.0213610
4592.00	23.46	0.0213457
4596.00	23.40	0.0213163
4600.00	23.33	0.0212799
4604.00	23.26	0.0212785
4608.00	23.20	0.0212740
4612.00	23.13	0.0212250
4616.00	23.06	0.0211816
4620.00	23.00	0.0211360
4624.00	22.93	0.0211102
4628.00	22.86	0.0210750
4632.00	22.80	0.0210420
4636.00	22.73	0.0210568
4640.00	22.66	0.0210220
4644.00	22.60	0.0210359
4648.00	22.53	0.0209927
4652.00	22.46	0.0209798
4656.00	22.40	0.0209413
4660.00	22.33	0.0209253
4664.00	22.26	0.0209401
4668.00	22.20	0.0208775
4672.00	22.13	0.0208357
4676.00	22.06	0.0208274
4680.00	22.00	0.0208105
4684.00	21.93	0.0207974
4688.00	21.86	0.0208020
4692.00	21.80	0.0207517
4696.00	21.73	0.0207527
4700.00	21.66	0.0207168
4704.00	21.60	0.0206761
4708.00	21.53	0.0206453
4712.00	21.46	0.0206239
4716.00	21.40	0.0206133
4720.00	21.33	0.0206000
4724.00	21.26	0.0205706
4728.00	21.20	0.0205389
4732.00	21.13	0.0205206
4736.00	21.06	0.0204801
4740.00	21.00	0.0204474
4744.00	20.93	0.0204563
4748.00	20.86	0.0204436
4752.00	20.80	0.0204166
4756.00	20.73	0.0203876
4760.00	20.66	0.0203800
4764.00	20.60	0.0203645
4768.00	20.53	0.0203424
4772.00	20.46	0.0203354
4776.00	20.40	0.0203448
4780.00	20.33	0.0203032
4784.00	20.26	0.0202681
4788.00	20.20	0.0202532
4792.00	20.13	0.0202418
4796.00	20.06	0.0202179
4800.00	20.00	0.0202092
4804.00	19.93	0.0202009
4808.00	19.86	0.0202051
4812.00	19.80	0.0201937
4816.00	19.73	0.0201821
4820.00	19.66	0.0201150
4824.00	19.60	0.0201001
4828.00	19.53	0.0201069
4832.00	19.46	0.0200785
4836.00	19.40	0.0200737
4840.00	19.33	0.0200810
4844.00	19.26	0.0200186
4848.00	19.20	0.0199763
4852.00	19.13	0.0199879
4856.00	19.06	0.0199898
4860.00	19.00	0.0199808
4864.00	18.93	0.0199806
4868.00	18.86	0.0199253
4872.00	18.80	0.0199014
4876.00	18.73	0.0198758
4880.00	18.66	0.0198799
4884.00	18.60	0.0198656
4888.00	18.53	0.0198393
4892.00	18.46	0.0198132
4896.00	18.40	0.0197804
4900.00	18.33	0.0197513
4904.00	18.26	0.0197557
4908.00	18.20	0.0196946
4912.00	18.13	0.0197365
4916.00	18.06	0.0196968
4920.00	18.00	0.0196964
4924.00	17.93	0.0196668
4928.00	17.86	0.0196558
4932.00	17.80	0.0196464
4936.00	17.73	0.0196153
4940.00	17.66	0.0196085
4944.00	17.60	0.0195666
4948.00	17.53	0.0195498
4952.00	17.46	0.0195081
4956.00	17.40	0.0194771
4960.00	17.33	0.0194904
4964.00	17.26	0.0194923
4968.00	17.20	0.0194767
4972.00	17.13	0.0194705
4976.00	17.06	0.0194668
4980.00	17.00	0.0194080
4984.00	16.93	0.0193747
4988.00	16.86	0.0193752
4992.00	16.80	0.0193315
4996.00	16.73	0.0193071
5000.00	16.66	0.0193332
5004.00	16.60	0.0193257
5008.00	16.53	0.0192928
5012.00	16.47	0.0192547
5016.00	16.40	0.0192393
5020.00	16.33	0.0192282
5024.00	16.26	0.0192149
5028.00	16.20	0.0192325
5032.00	16.13	0.0191978
5036.00	16.06	0.0191832
5040.00	16.00	0.0191664
5044.00	15.93	0.0191340
5048.00	15.86	0.0191223
5052.00	15.80	0.0191136
5056.00	15.73	0.0191268
5060.00	15.66	0.0190810
5064.00	15.60	0.0190575
5068.00	15.53	0.0190356
5072.00	15.46	0.0190319
5076.00	15.40	0.0190157
5080.00	15.33	0.0189595
5084.00	15.26	0.0189437
5088.00	15.20	0.0189299
5092.00	15.13	0.0189407
5096.00	15.06	0.0189024
5100.00	15.00	0.0188870
5104.00	14.93	0.0188349
5108.00	14.86	0.0188028
5112.00	14.80	0.0187925
5116.00	14.73	0.0187686
5120.00	14.66	0.0187755
5124.00	14.60	0.0187553
5128.00	14.53	0.0187161
5132.00	14.46	0.0187037
5136.00	14.40	0.0186884
5140.00	14.33	0.0186560
5144.00	14.26	0.0186619
5148.00	14.20	0.0186782
5152.00	14.13	0.0186854
5156.00	14.06	0.0186548
5160.00	14.00	0.0186263
5164.00	13.93	0.0186315
5168.00	13.86	0.0186205
5172.00	13.80	0.0185773
5176.00	13.73	0.0185848
5180.00	13.66	0.0185852
5184.00	13.60	0.0185553
5188.00	13.53	0.0185207
5192.00	13.46	0.0185015
5196.00	13.40	0.0184966
5200.00	13.33	0.0185174
5204.00	13.26	0.0184728
5208.00	13.20	0.0184694
5212.00	13.13	0.0184803
5216.00	13.06	0.0184513
5220.00	13.00	0.0184228
5224.00	12.93	0.0183979
5228.00	12.86	0.0183420
5232.00	12.80	0.0183505
5236.00	12.73	0.0183436
5240.00	12.66	0.0183018
5244.00	12.60	0.0182608
5248.00	12.53	0.0182704
5252.00	12.46	0.0182871
5256.00	12.40	0.0182578
5260.00	12.33	0.0182478
5264.00	12.26	0.0182249
5268.00	12.20	0.0182304
5272.00	12.13	0.0181962
5276.00	12.06	0.0181749
5280.00	12.00	0.0181408
5284.00	11.93	0.0181311
5288.00	11.86	0.0181596
5292.00	11.80	0.0181451
5296.00	11.73	0.0181133
5300.00	11.66	0.0180783
5304.00	11.60	0.0180778
5308.00	11.53	0.0180186
5312.00	11.46	0.0180109
5316.00	11.40	0.0179875
5320.00	11.33	0.0179702
5324.00	11.26	0.0179507
5328.00	11.20	0.0179525
5332.00	11.13	0.0179219
5336.00	11.06	0.0179134
5340.00	11.00	0.0178827
5344.00	10.93	0.0178807
5348.00	10.87	0.0178148
5352.00	10.80	0.0178149
5356.00	10.73	0.0178144
5360.00	10.66	0.0178325
5364.00	10.60	0.0178128
5368.00	10.53	0.0178328
5372.00	10.46	0.0178095
5376.00	10.40	0.0178138
5380.00	10.33	0.0177967
5384.00	10.26	0.0177657
5388.00	10.20	0.0177320
5392.00	10.13	0.0177157
5396.00	10.06	0.0176602
5400.00	10.00	0.0176447
5404.00	9.93	0.0176472
5408.00	9.86	0.0176650
5412.00	9.80	0.0176890
5416.00	9.73	0.0176596
5420.00	9.66	0.0176283
5424.00	9.60	0.0176045
5428.00	9.53	0.0175793
5432.00	9.46	0.0175770
5436.00	9.40	0.0175731
5440.00	9.33	0.0175270
5444.00	9.26	0.0174879
5448.00	9.20	0.0174546
5452.00	9.13	0.0174357
5456.00	9.06	0.0173924
5460.00	9.00	0.0173832
5464.00	8.93	0.0173686
5468.00	8.86	0.0173235
5472.00	8.80	0.0173211
5476.00	8.73	0.0172924
5480.00	8.66	0.0172605
5484.00	8.60	0.0172763
5488.00	8.53	0.0172741
5492.00	8.46	0.0172206
5496.00	8.40	0.0172086
5500.00	8.33	0.0171789
5504.00	8.27	0.0171690
5508.00	8.20	0.0171928
5512.00	8.13	0.0171689
5516.00	8.06	0.0171543
5520.00	8.00	0.0171432
5524.00	7.93	0.0171349
5528.00	7.86	0.0171301
5532.00	7.80	0.0170875
5536.00	7.73	0.0170533
5540.00	7.66	0.0170536
5544.00	7.60	0.0170498
5548.00	7.53	0.0170399
5552.00	7.46	0.0169820
5556.00	7.40	0.0169828
5560.00	7.33	0.0169570
5564.00	7.26	0.0169457
5568.00	7.20	0.0169406
5572.00	7.13	0.0168990
5576.00	7.06	0.0169093
5580.00	7.00	0.0168484
5584.00	6.93	0.0168611
5588.00	6.86	0.0168351
5592.00	6.80	0.0168380
5596.00	6.73	0.0168355
5600.00	6.66	0.0168040
5604.00	6.60	0.0167735
5608.00	6.53	0.0167566
5612.00	6.46	0.0167408
5616.00	6.40	0.0167416
5620.00	6.33	0.0167505
5624.00	6.26	0.0167689
5628.00	6.20	0.0167590
5632.00	6.13	0.0167314
5636.00	6.06	0.0167047
5640.00	6.00	0.0167237
5644.00	5.93	0.0166739
5648.00	5.86	0.0166609
5652.00	5.80	0.0166484
5656.00	5.73	0.0166320
5660.00	5.66	0.0166356
5664.00	5.60	0.0166114
5668.00	5.53	0.0166372
5672.00	5.46	0.0166019
5676.00	5.40	0.0165858
5680.00	5.33	0.0165759
5684.00	5.26	0.0165564
5688.00	5.20	0.0165580
5692.00	5.13	0.0165352
5696.00	5.06	0.0164619
5700.00	5.00	0.0164857
5704.00	4.93	0.0164651
5708.00	4.86	0.0164440
5712.00	4.80	0.0164129
5716.00	4.73	0.0164201
5720.00	4.66	0.0164082
5724.00	4.60	0.0163816
5728.00	4.53	0.0163697
5732.00	4.46	0.0163653
5736.00	4.40	0.0163638
5740.00	4.33	0.0163284
5744.00	4.26	0.0163291
5748.00	4.20	0.0163220
5752.00	4.13	0.0163098
5756.00	4.06	0.0163421
5760.00	4.00	0.0162915
5764.00	3.93	0.0162940
5768.00	3.86	0.0162420
5772.00	3.80	0.0162204
5776.00	3.73	0.0162144
5780.00	3.67	0.0162136
5784.00	3.60	0.0161732
5788.00	3.53	0.0161845
5792.00	3.47	0.0161658
5796.00	3.40	0.0161512
5800.00	3.33	0.0161454
5804.00	3.26	0.0161435
5808.00	3.20	0.0161207
5812.00	3.13	0.0161629
5816.00	3.06	0.0161197
5820.00	3.00	0.0161334
5824.00	2.93	0.0161528
5828.00	2.86	0.0161447
5832.00	2.80	0.0161019
5836.00	2.73	0.0161065
5840.00	2.66	0.0160771
5844.00	2.60	0.0160861
5848.00	2.53	0.0160705
5852.00	2.46	0.0160817
5856.00	2.40	0.0160607
5860.00	2.33	0.0160403
5864.00	2.26	0.0160666
5868.00	2.20	0.0160289
5872.00	2.13	0.0160194
5876.00	2.06	0.0160030
5880.00	2.00	0.0159622
5884.00	1.93	0.0159556
5888.00	1.86	0.0159352
5892.00	1.80	0.0159448
5896.00	1.73	0.0159407
5900.00	1.66	0.0159524
5904.00	1.60	0.0159416
5908.00	1.53	0.0158969
5912.00	1.46	0.0158915
5916.00	1.40	0.0158718
5920.00	1.33	0.0158702
5924.00	1.26	0.0158724
5928.00	1.20	0.0158124
5932.00	1.13	0.0158649
5936.00	1.06	0.0158539
5940.00	1.00	0.0158458
5944.00	0.93	0.0158308
5948.00	0.86	0.0157943
5952.00	0.80	0.0157882
5956.00	0.73	0.0157641
5960.00	0.66	0.0157261
5964.00	0.60	0.0157099
5968.00	0.53	0.0157192
5972.00	0.46	0.0157229
5976.00	0.40	0.0157682
5980.00	0.33	0.0157535
5984.00	0.27	0.0157854
5988.00	0.20	0.0157605
5992.00	0.13	0.0157614
5996.00	0.06	0.0157681
5999.90	0.00	0.0157701