File: Differential scanning calorimetry/8OCB Squalane/8OCB SqA wt fraction 250.txt
Filename	8OCBSA250
Instrument name	DSC2A-00101 (192.168.10.4)
Operator	Yuma
rundate	5/28/2021
Sample name	8OCBSA250
proceduresegments	Data Off ; Equilibrate 150.00 °C; Isothermal 10.0 min; Equilibrate 100.00 °C; Isothermal 5.0 min; Data On ; Ramp 1.00 °C/min to 0.00 °C; Ramp 5.00 °C/min to 150.00 °C; Data Off ; Isothermal 10.0 min; Modulate Temperature 1.00 °C for 60.0 s; Equilibrate 100.00 °C; Isothermal 10.0 min; Data On ; Ramp 1.00 °C/min to 0.00 °C; Ramp 3.00 °C/min to 100.00 °C; Jump 30.00 °C
[step]
Ramp 1.00 °C/min to 0.00 °C
Time	Temperature	Heat Flow (Normalized)
s	°C	W/g
0.00000	99.84	4.25361e-3
4.00000	99.83	4.40101e-3
8.00000	99.81	1.59659e-3
12.0000	99.76	4.83295e-3
16.0000	99.71	0.0149132
20.0000	99.65	0.0219908
24.0000	99.59	0.0269424
28.0000	99.53	0.0295265
32.0000	99.46	0.0312559
36.0000	99.40	0.0322546
40.0000	99.33	0.0329094
44.0000	99.27	0.0335279
48.0000	99.20	0.0340597
52.0000	99.13	0.0345373
56.0000	99.07	0.0349083
60.0000	99.00	0.0352302
64.0000	98.93	0.0355135
68.0000	98.87	0.0356961
72.0000	98.80	0.0358267
76.0000	98.73	0.0359347
80.0000	98.67	0.0360300
84.0000	98.60	0.0360997
88.0000	98.53	0.0361481
92.0000	98.47	0.0361797
96.0000	98.40	0.0362038
100.000	98.33	0.0362194
104.000	98.27	0.0362323
108.000	98.20	0.0362490
112.000	98.13	0.0362433
116.000	98.07	0.0362485
120.000	98.00	0.0362569
124.000	97.93	0.0362423
128.000	97.87	0.0362250
132.000	97.80	0.0362683
136.000	97.73	0.0362784
140.000	97.67	0.0362905
144.000	97.60	0.0362806
148.000	97.54	0.0362630
152.000	97.47	0.0362033
156.000	97.40	0.0361660
160.000	97.34	0.0361394
164.000	97.27	0.0361307
168.000	97.20	0.0361481
172.000	97.13	0.0361598
176.000	97.07	0.0361709
180.000	97.00	0.0361887
184.000	96.93	0.0362526
188.000	96.87	0.0362550
192.000	96.80	0.0362360
196.000	96.73	0.0361987
200.000	96.67	0.0361740
204.000	96.60	0.0361534
208.000	96.53	0.0361608
212.000	96.47	0.0361474
216.000	96.40	0.0361321
220.000	96.34	0.0361047
224.000	96.27	0.0360644
228.000	96.20	0.0360604
232.000	96.14	0.0360427
236.000	96.07	0.0360298
240.000	96.00	0.0360343
244.000	95.93	0.0360423
248.000	95.87	0.0360575
252.000	95.80	0.0360549
256.000	95.73	0.0360480
260.000	95.67	0.0360527
264.000	95.60	0.0360515
268.000	95.53	0.0360515
272.000	95.47	0.0360091
276.000	95.40	0.0360267
280.000	95.33	0.0360200
284.000	95.27	0.0360405
288.000	95.20	0.0360410
292.000	95.14	0.0359991
296.000	95.07	0.0359709
300.000	95.00	0.0359657
304.000	94.94	0.0359769
308.000	94.87	0.0359953
312.000	94.80	0.0359969
316.000	94.73	0.0359972
320.000	94.67	0.0359901
324.000	94.60	0.0359919
328.000	94.53	0.0359786
332.000	94.47	0.0359877
336.000	94.40	0.0359669
340.000	94.33	0.0359358
344.000	94.27	0.0359227
348.000	94.20	0.0359088
352.000	94.14	0.0359042
356.000	94.07	0.0358826
360.000	94.00	0.0359132
364.000	93.93	0.0359140
368.000	93.87	0.0359368
372.000	93.80	0.0359361
376.000	93.73	0.0359000
380.000	93.67	0.0358758
384.000	93.60	0.0358946
388.000	93.53	0.0358562
392.000	93.47	0.0358798
396.000	93.40	0.0358760
400.000	93.33	0.0358911
404.000	93.27	0.0358818
408.000	93.20	0.0358561
412.000	93.13	0.0358215
416.000	93.07	0.0358018
420.000	93.00	0.0357948
424.000	92.93	0.0357886
428.000	92.87	0.0358154
432.000	92.80	0.0358095
436.000	92.73	0.0357971
440.000	92.67	0.0357857
444.000	92.60	0.0357441
448.000	92.54	0.0357366
452.000	92.47	0.0357138
456.000	92.40	0.0356774
460.000	92.34	0.0356862
464.000	92.27	0.0357077
468.000	92.20	0.0357174
472.000	92.13	0.0357417
476.000	92.07	0.0357715
480.000	92.00	0.0358088
484.000	91.93	0.0357808
488.000	91.87	0.0357430
492.000	91.80	0.0357406
496.000	91.74	0.0357117
500.000	91.67	0.0357357
504.000	91.60	0.0357388
508.000	91.53	0.0357204
512.000	91.47	0.0357234
516.000	91.40	0.0357411
520.000	91.34	0.0356912
524.000	91.27	0.0356970
528.000	91.20	0.0357056
532.000	91.14	0.0356715
536.000	91.07	0.0356304
540.000	91.00	0.0356525
544.000	90.93	0.0356294
548.000	90.87	0.0356779
552.000	90.80	0.0356911
556.000	90.73	0.0356515
560.000	90.67	0.0356555
564.000	90.60	0.0356316
568.000	90.53	0.0355685
572.000	90.47	0.0355542
576.000	90.40	0.0355300
580.000	90.34	0.0355066
584.000	90.27	0.0355108
588.000	90.20	0.0354863
592.000	90.14	0.0354932
596.000	90.07	0.0355019
600.000	90.00	0.0354671
604.000	89.94	0.0355315
608.000	89.87	0.0355145
612.000	89.80	0.0355291
616.000	89.74	0.0355330
620.000	89.67	0.0355299
624.000	89.60	0.0355529
628.000	89.54	0.0355370
632.000	89.47	0.0355205
636.000	89.40	0.0355170
640.000	89.34	0.0355190
644.000	89.27	0.0355132
648.000	89.20	0.0354926
652.000	89.14	0.0355287
656.000	89.07	0.0355533
660.000	89.00	0.0355224
664.000	88.94	0.0355110
668.000	88.87	0.0354906
672.000	88.80	0.0354627
676.000	88.73	0.0354667
680.000	88.67	0.0354462
684.000	88.60	0.0354446
688.000	88.54	0.0354030
692.000	88.47	0.0353658
696.000	88.40	0.0353745
700.000	88.33	0.0353698
704.000	88.27	0.0353960
708.000	88.20	0.0354377
712.000	88.14	0.0354309
716.000	88.07	0.0354121
720.000	88.00	0.0354308
724.000	87.94	0.0354398
728.000	87.87	0.0354041
732.000	87.80	0.0353631
736.000	87.74	0.0353417
740.000	87.67	0.0353402
744.000	87.60	0.0353286
748.000	87.54	0.0353166
752.000	87.47	0.0353266
756.000	87.40	0.0353494
760.000	87.34	0.0353362
764.000	87.27	0.0353510
768.000	87.20	0.0353796
772.000	87.14	0.0353575
776.000	87.07	0.0353270
780.000	87.00	0.0353426
784.000	86.94	0.0353342
788.000	86.87	0.0353480
792.000	86.80	0.0352878
796.000	86.74	0.0352688
800.000	86.67	0.0352622
804.000	86.60	0.0352626
808.000	86.54	0.0352630
812.000	86.47	0.0352659
816.000	86.40	0.0352642
820.000	86.34	0.0352400
824.000	86.27	0.0352562
828.000	86.20	0.0352430
832.000	86.14	0.0352538
836.000	86.07	0.0352532
840.000	86.00	0.0352538
844.000	85.94	0.0352472
848.000	85.87	0.0352207
852.000	85.80	0.0351814
856.000	85.74	0.0351720
860.000	85.67	0.0351357
864.000	85.60	0.0351489
868.000	85.54	0.0351428
872.000	85.47	0.0351307
876.000	85.40	0.0351230
880.000	85.34	0.0351164
884.000	85.27	0.0351428
888.000	85.20	0.0351546
892.000	85.14	0.0351477
896.000	85.07	0.0351698
900.000	85.00	0.0351579
904.000	84.94	0.0351967
908.000	84.87	0.0351603
912.000	84.80	0.0351653
916.000	84.74	0.0351473
920.000	84.67	0.0351162
924.000	84.60	0.0350914
928.000	84.54	0.0350779
932.000	84.47	0.0350783
936.000	84.40	0.0350779
940.000	84.34	0.0350439
944.000	84.27	0.0350502
948.000	84.20	0.0350714
952.000	84.14	0.0350493
956.000	84.07	0.0350193
960.000	84.00	0.0350221
964.000	83.94	0.0350204
968.000	83.87	0.0350215
972.000	83.80	0.0350266
976.000	83.74	0.0349845
980.000	83.67	0.0349371
984.000	83.60	0.0349262
988.000	83.54	0.0349513
992.000	83.47	0.0349554
996.000	83.40	0.0349657
1000.00	83.34	0.0349647
1004.00	83.27	0.0349938
1008.00	83.20	0.0350024
1012.00	83.14	0.0350026
1016.00	83.07	0.0350002
1020.00	83.00	0.0349752
1024.00	82.94	0.0349747
1028.00	82.87	0.0349752
1032.00	82.80	0.0349854
1036.00	82.74	0.0349631
1040.00	82.67	0.0349606
1044.00	82.60	0.0349185
1048.00	82.54	0.0349167
1052.00	82.47	0.0349067
1056.00	82.40	0.0349057
1060.00	82.34	0.0349026
1064.00	82.27	0.0349186
1068.00	82.20	0.0349267
1072.00	82.14	0.0349307
1076.00	82.07	0.0349354
1080.00	82.00	0.0349299
1084.00	81.94	0.0349112
1088.00	81.87	0.0348990
1092.00	81.80	0.0348886
1096.00	81.74	0.0349155
1100.00	81.67	0.0349146
1104.00	81.60	0.0349130
1108.00	81.54	0.0348870
1112.00	81.47	0.0348838
1116.00	81.40	0.0348702
1120.00	81.34	0.0348759
1124.00	81.27	0.0348777
1128.00	81.20	0.0348554
1132.00	81.14	0.0348505
1136.00	81.07	0.0348752
1140.00	81.00	0.0348913
1144.00	80.94	0.0348985
1148.00	80.87	0.0349024
1152.00	80.80	0.0348921
1156.00	80.74	0.0348869
1160.00	80.67	0.0348867
1164.00	80.60	0.0348759
1168.00	80.54	0.0348661
1172.00	80.47	0.0348707
1176.00	80.40	0.0348703
1180.00	80.34	0.0348470
1184.00	80.27	0.0348579
1188.00	80.20	0.0348385
1192.00	80.14	0.0348196
1196.00	80.07	0.0348062
1200.00	80.00	0.0348217
1204.00	79.94	0.0348149
1208.00	79.87	0.0348141
1212.00	79.80	0.0347925
1216.00	79.74	0.0347775
1220.00	79.67	0.0347932
1224.00	79.60	0.0348370
1228.00	79.54	0.0348241
1232.00	79.47	0.0348024
1236.00	79.40	0.0348074
1240.00	79.34	0.0348103
1244.00	79.27	0.0347873
1248.00	79.20	0.0348097
1252.00	79.14	0.0348121
1256.00	79.07	0.0347849
1260.00	79.01	0.0347469
1264.00	78.94	0.0347413
1268.00	78.87	0.0347502
1272.00	78.80	0.0347586
1276.00	78.74	0.0347364
1280.00	78.67	0.0347015
1284.00	78.60	0.0346885
1288.00	78.54	0.0346874
1292.00	78.47	0.0346481
1296.00	78.41	0.0346563
1300.00	78.34	0.0346654
1304.00	78.27	0.0347040
1308.00	78.20	0.0347234
1312.00	78.14	0.0347449
1316.00	78.07	0.0347634
1320.00	78.00	0.0347543
1324.00	77.94	0.0347060
1328.00	77.87	0.0346986
1332.00	77.81	0.0347064
1336.00	77.74	0.0346919
1340.00	77.67	0.0346829
1344.00	77.60	0.0346880
1348.00	77.54	0.0347019
1352.00	77.47	0.0346801
1356.00	77.40	0.0346921
1360.00	77.34	0.0346834
1364.00	77.27	0.0346997
1368.00	77.20	0.0347098
1372.00	77.14	0.0347309
1376.00	77.07	0.0347384
1380.00	77.00	0.0347399
1384.00	76.94	0.0347294
1388.00	76.87	0.0346909
1392.00	76.80	0.0346701
1396.00	76.74	0.0346373
1400.00	76.67	0.0346146
1404.00	76.61	0.0346037
1408.00	76.54	0.0345869
1412.00	76.47	0.0345842
1416.00	76.40	0.0346063
1420.00	76.34	0.0346034
1424.00	76.27	0.0346049
1428.00	76.21	0.0346208
1432.00	76.14	0.0346248
1436.00	76.07	0.0346126
1440.00	76.00	0.0346299
1444.00	75.94	0.0346262
1448.00	75.87	0.0346401
1452.00	75.81	0.0346430
1456.00	75.74	0.0346523
1460.00	75.67	0.0346205
1464.00	75.60	0.0345982
1468.00	75.54	0.0345771
1472.00	75.47	0.0345747
1476.00	75.40	0.0345933
1480.00	75.34	0.0345797
1484.00	75.27	0.0345919
1488.00	75.21	0.0345903
1492.00	75.14	0.0345886
1496.00	75.07	0.0345895
1500.00	75.01	0.0345707
1504.00	74.94	0.0345572
1508.00	74.87	0.0345557
1512.00	74.80	0.0345814
1516.00	74.74	0.0345751
1520.00	74.67	0.0345802
1524.00	74.61	0.0345744
1528.00	74.54	0.0345664
1532.00	74.47	0.0345452
1536.00	74.40	0.0345569
1540.00	74.34	0.0345690
1544.00	74.27	0.0345327
1548.00	74.21	0.0345451
1552.00	74.14	0.0345452
1556.00	74.07	0.0345712
1560.00	74.01	0.0345869
1564.00	73.94	0.0345880
1568.00	73.87	0.0345687
1572.00	73.80	0.0345931
1576.00	73.74	0.0345751
1580.00	73.67	0.0345670
1584.00	73.61	0.0345689
1588.00	73.54	0.0345567
1592.00	73.47	0.0345651
1596.00	73.40	0.0345931
1600.00	73.34	0.0345756
1604.00	73.27	0.0345643
1608.00	73.21	0.0345445
1612.00	73.14	0.0345392
1616.00	73.07	0.0345395
1620.00	73.01	0.0345352
1624.00	72.94	0.0345281
1628.00	72.87	0.0345561
1632.00	72.80	0.0345479
1636.00	72.74	0.0345729
1640.00	72.67	0.0345783
1644.00	72.61	0.0345990
1648.00	72.54	0.0345770
1652.00	72.47	0.0345912
1656.00	72.40	0.0345674
1660.00	72.34	0.0345451
1664.00	72.27	0.0345305
1668.00	72.21	0.0345203
1672.00	72.14	0.0345304
1676.00	72.07	0.0345430
1680.00	72.01	0.0345817
1684.00	71.94	0.0345572
1688.00	71.87	0.0345641
1692.00	71.81	0.0345639
1696.00	71.74	0.0345860
1700.00	71.67	0.0346037
1704.00	71.61	0.0346107
1708.00	71.54	0.0346066
1712.00	71.47	0.0346055
1716.00	71.41	0.0345768
1720.00	71.34	0.0345869
1724.00	71.27	0.0345755
1728.00	71.21	0.0345958
1732.00	71.14	0.0345822
1736.00	71.07	0.0345771
1740.00	71.01	0.0345606
1744.00	70.94	0.0345634
1748.00	70.87	0.0345661
1752.00	70.81	0.0345481
1756.00	70.74	0.0345661
1760.00	70.67	0.0345598
1764.00	70.61	0.0345577
1768.00	70.54	0.0345594
1772.00	70.47	0.0345510
1776.00	70.41	0.0345714
1780.00	70.34	0.0345743
1784.00	70.27	0.0345959
1788.00	70.21	0.0346210
1792.00	70.14	0.0346210
1796.00	70.07	0.0346401
1800.00	70.01	0.0346533
1804.00	69.94	0.0346563
1808.00	69.87	0.0346606
1812.00	69.81	0.0346764
1816.00	69.74	0.0346606
1820.00	69.67	0.0346576
1824.00	69.61	0.0346382
1828.00	69.54	0.0346604
1832.00	69.47	0.0346752
1836.00	69.41	0.0346917
1840.00	69.34	0.0346787
1844.00	69.27	0.0347019
1848.00	69.21	0.0347565
1852.00	69.14	0.0347156
1856.00	69.07	0.0347096
1860.00	69.01	0.0346914
1864.00	68.94	0.0346548
1868.00	68.87	0.0346620
1872.00	68.81	0.0346965
1876.00	68.74	0.0347115
1880.00	68.67	0.0347003
1884.00	68.61	0.0347014
1888.00	68.54	0.0346978
1892.00	68.47	0.0346941
1896.00	68.41	0.0346906
1900.00	68.34	0.0347068
1904.00	68.27	0.0347217
1908.00	68.21	0.0347480
1912.00	68.14	0.0347446
1916.00	68.07	0.0347514
1920.00	68.01	0.0347525
1924.00	67.94	0.0347991
1928.00	67.87	0.0348128
1932.00	67.81	0.0347994
1936.00	67.74	0.0347773
1940.00	67.67	0.0347747
1944.00	67.61	0.0347602
1948.00	67.54	0.0347768
1952.00	67.47	0.0347566
1956.00	67.41	0.0347842
1960.00	67.34	0.0348042
1964.00	67.27	0.0348342
1968.00	67.21	0.0348528
1972.00	67.14	0.0348451
1976.00	67.07	0.0348858
1980.00	67.01	0.0349008
1984.00	66.94	0.0349107
1988.00	66.87	0.0349162
1992.00	66.81	0.0349050
1996.00	66.74	0.0349123
2000.00	66.67	0.0348839
2004.00	66.61	0.0348859
2008.00	66.54	0.0348633
2012.00	66.47	0.0348863
2016.00	66.41	0.0348897
2020.00	66.34	0.0349087
2024.00	66.27	0.0349177
2028.00	66.21	0.0349354
2032.00	66.14	0.0349744
2036.00	66.07	0.0349950
2040.00	66.01	0.0350055
2044.00	65.94	0.0350279
2048.00	65.87	0.0350293
2052.00	65.81	0.0350306
2056.00	65.74	0.0350350
2060.00	65.68	0.0350545
2064.00	65.61	0.0350607
2068.00	65.54	0.0350933
2072.00	65.47	0.0351255
2076.00	65.41	0.0351679
2080.00	65.34	0.0351906
2084.00	65.27	0.0352296
2088.00	65.21	0.0352303
2092.00	65.14	0.0352255
2096.00	65.07	0.0352449
2100.00	65.01	0.0352475
2104.00	64.94	0.0352528
2108.00	64.87	0.0352605
2112.00	64.81	0.0352810
2116.00	64.74	0.0353010
2120.00	64.67	0.0352660
2124.00	64.61	0.0353067
2128.00	64.54	0.0353336
2132.00	64.48	0.0353565
2136.00	64.41	0.0354018
2140.00	64.34	0.0354273
2144.00	64.28	0.0354544
2148.00	64.21	0.0355109
2152.00	64.14	0.0355025
2156.00	64.07	0.0355401
2160.00	64.01	0.0355244
2164.00	63.94	0.0355323
2168.00	63.88	0.0355542
2172.00	63.81	0.0355346
2176.00	63.74	0.0355580
2180.00	63.67	0.0355874
2184.00	63.61	0.0356208
2188.00	63.54	0.0356271
2192.00	63.48	0.0356640
2196.00	63.41	0.0357007
2200.00	63.34	0.0357396
2204.00	63.28	0.0357715
2208.00	63.21	0.0357963
2212.00	63.14	0.0358261
2216.00	63.07	0.0358427
2220.00	63.01	0.0358816
2224.00	62.94	0.0359116
2228.00	62.88	0.0359426
2232.00	62.81	0.0359616
2236.00	62.74	0.0360022
2240.00	62.68	0.0360376
2244.00	62.61	0.0360722
2248.00	62.54	0.0360927
2252.00	62.48	0.0361110
2256.00	62.41	0.0361810
2260.00	62.34	0.0362702
2264.00	62.28	0.0362924
2268.00	62.21	0.0363037
2272.00	62.14	0.0363363
2276.00	62.07	0.0363911
2280.00	62.01	0.0364614
2284.00	61.94	0.0365344
2288.00	61.88	0.0365646
2292.00	61.81	0.0365956
2296.00	61.74	0.0366433
2300.00	61.68	0.0366796
2304.00	61.61	0.0367476
2308.00	61.54	0.0368020
2312.00	61.48	0.0368832
2316.00	61.41	0.0369518
2320.00	61.34	0.0370821
2324.00	61.28	0.0372551
2328.00	61.21	0.0375341
2332.00	61.15	0.0378454
2336.00	61.08	0.0381669
2340.00	61.01	0.0385053
2344.00	60.94	0.0388161
2348.00	60.88	0.0390954
2352.00	60.81	0.0393394
2356.00	60.75	0.0395288
2360.00	60.68	0.0397027
2364.00	60.61	0.0398845
2368.00	60.55	0.0400327
2372.00	60.48	0.0401860
2376.00	60.41	0.0403430
2380.00	60.35	0.0404528
2384.00	60.28	0.0405939
2388.00	60.21	0.0407326
2392.00	60.15	0.0408942
2396.00	60.08	0.0410881
2400.00	60.01	0.0412830
2404.00	59.95	0.0414955
2408.00	59.88	0.0417195
2412.00	59.81	0.0419669
2416.00	59.75	0.0422440
2420.00	59.68	0.0425432
2424.00	59.62	0.0428969
2428.00	59.55	0.0433190
2432.00	59.49	0.0434866
2436.00	59.47	0.0752674
2440.00	59.43	0.138072
2444.00	59.38	0.178160
2448.00	59.32	0.189478
2452.00	59.24	0.180578
2456.00	59.15	0.159331
2460.00	59.06	0.125485
2464.00	58.98	0.0932804
2468.00	58.91	0.0790221
2472.00	58.83	0.0730816
2476.00	58.76	0.0673076
2480.00	58.69	0.0627523
2484.00	58.62	0.0587983
2488.00	58.56	0.0560160
2492.00	58.49	0.0539823
2496.00	58.42	0.0527059
2500.00	58.35	0.0513691
2504.00	58.29	0.0505555
2508.00	58.22	0.0497921
2512.00	58.15	0.0490182
2516.00	58.08	0.0483793
2520.00	58.02	0.0478406
2524.00	57.95	0.0474279
2528.00	57.88	0.0471186
2532.00	57.82	0.0469050
2536.00	57.75	0.0468961
2540.00	57.69	0.0473958
2544.00	57.62	0.0482898
2548.00	57.55	0.0487051
2552.00	57.48	0.0484774
2556.00	57.42	0.0478342
2560.00	57.35	0.0468438
2564.00	57.28	0.0458038
2568.00	57.21	0.0447635
2572.00	57.15	0.0438758
2576.00	57.08	0.0429687
2580.00	57.01	0.0421674
2584.00	56.95	0.0414866
2588.00	56.88	0.0408547
2592.00	56.81	0.0402708
2596.00	56.74	0.0398301
2600.00	56.68	0.0394400
2604.00	56.61	0.0390751
2608.00	56.54	0.0387485
2612.00	56.48	0.0384839
2616.00	56.41	0.0382537
2620.00	56.34	0.0380304
2624.00	56.28	0.0378399
2628.00	56.21	0.0376361
2632.00	56.14	0.0374734
2636.00	56.08	0.0373203
2640.00	56.01	0.0371742
2644.00	55.94	0.0370370
2648.00	55.88	0.0369246
2652.00	55.81	0.0367955
2656.00	55.75	0.0366653
2660.00	55.68	0.0365344
2664.00	55.61	0.0364178
2668.00	55.54	0.0363398
2672.00	55.48	0.0362446
2676.00	55.41	0.0361607
2680.00	55.34	0.0360600
2684.00	55.28	0.0359772
2688.00	55.21	0.0359089
2692.00	55.14	0.0358337
2696.00	55.08	0.0357515
2700.00	55.01	0.0356966
2704.00	54.94	0.0356287
2708.00	54.88	0.0355622
2712.00	54.81	0.0355186
2716.00	54.74	0.0354713
2720.00	54.68	0.0354014
2724.00	54.61	0.0353248
2728.00	54.54	0.0352404
2732.00	54.48	0.0351743
2736.00	54.41	0.0351164
2740.00	54.34	0.0350490
2744.00	54.28	0.0349645
2748.00	54.21	0.0348991
2752.00	54.14	0.0348623
2756.00	54.08	0.0348233
2760.00	54.01	0.0347921
2764.00	53.94	0.0347529
2768.00	53.88	0.0347353
2772.00	53.81	0.0347128
2776.00	53.74	0.0346858
2780.00	53.68	0.0346548
2784.00	53.61	0.0346078
2788.00	53.54	0.0345553
2792.00	53.48	0.0345127
2796.00	53.41	0.0344646
2800.00	53.34	0.0344358
2804.00	53.28	0.0344046
2808.00	53.21	0.0343614
2812.00	53.14	0.0343276
2816.00	53.08	0.0342538
2820.00	53.01	0.0342237
2824.00	52.94	0.0342063
2828.00	52.88	0.0341668
2832.00	52.81	0.0341503
2836.00	52.74	0.0340841
2840.00	52.67	0.0340597
2844.00	52.61	0.0340392
2848.00	52.54	0.0339943
2852.00	52.48	0.0339733
2856.00	52.41	0.0339206
2860.00	52.34	0.0338713
2864.00	52.28	0.0338387
2868.00	52.21	0.0338367
2872.00	52.14	0.0338023
2876.00	52.08	0.0337744
2880.00	52.01	0.0337075
2884.00	51.94	0.0336870
2888.00	51.88	0.0336795
2892.00	51.81	0.0336607
2896.00	51.74	0.0336237
2900.00	51.68	0.0335926
2904.00	51.61	0.0335530
2908.00	51.54	0.0335163
2912.00	51.48	0.0334835
2916.00	51.41	0.0334692
2920.00	51.34	0.0334201
2924.00	51.28	0.0333968
2928.00	51.21	0.0333902
2932.00	51.14	0.0333530
2936.00	51.08	0.0333321
2940.00	51.01	0.0333239
2944.00	50.94	0.0333154
2948.00	50.88	0.0332811
2952.00	50.81	0.0332312
2956.00	50.74	0.0331846
2960.00	50.68	0.0331760
2964.00	50.61	0.0331603
2968.00	50.54	0.0331251
2972.00	50.48	0.0331212
2976.00	50.41	0.0331009
2980.00	50.34	0.0330819
2984.00	50.28	0.0330378
2988.00	50.21	0.0330203
2992.00	50.14	0.0330319
2996.00	50.08	0.0330059
3000.00	50.01	0.0329623
3004.00	49.94	0.0329521
3008.00	49.88	0.0329217
3012.00	49.81	0.0329252
3016.00	49.74	0.0328925
3020.00	49.68	0.0328702
3024.00	49.61	0.0328548
3028.00	49.54	0.0328077
3032.00	49.48	0.0327702
3036.00	49.41	0.0327720
3040.00	49.34	0.0327596
3044.00	49.28	0.0327238
3048.00	49.21	0.0326942
3052.00	49.14	0.0327034
3056.00	49.08	0.0326585
3060.00	49.01	0.0326241
3064.00	48.94	0.0326084
3068.00	48.88	0.0325762
3072.00	48.81	0.0325567
3076.00	48.74	0.0325400
3080.00	48.68	0.0325371
3084.00	48.61	0.0325649
3088.00	48.54	0.0325461
3092.00	48.48	0.0325295
3096.00	48.41	0.0325230
3100.00	48.34	0.0325035
3104.00	48.27	0.0324828
3108.00	48.21	0.0324461
3112.00	48.14	0.0324388
3116.00	48.08	0.0323599
3120.00	48.01	0.0323048
3124.00	47.94	0.0322642
3128.00	47.88	0.0322684
3132.00	47.81	0.0322631
3136.00	47.74	0.0322752
3140.00	47.68	0.0322848
3144.00	47.61	0.0322746
3148.00	47.54	0.0322843
3152.00	47.48	0.0322999
3156.00	47.41	0.0322903
3160.00	47.34	0.0322986
3164.00	47.28	0.0322965
3168.00	47.21	0.0322741
3172.00	47.14	0.0322595
3176.00	47.07	0.0322411
3180.00	47.01	0.0322076
3184.00	46.94	0.0322048
3188.00	46.87	0.0321873
3192.00	46.81	0.0321408
3196.00	46.74	0.0320794
3200.00	46.68	0.0320342
3204.00	46.61	0.0319946
3208.00	46.54	0.0319249
3212.00	46.48	0.0319071
3216.00	46.41	0.0318831
3220.00	46.34	0.0319017
3224.00	46.28	0.0319259
3228.00	46.21	0.0319143
3232.00	46.14	0.0319418
3236.00	46.08	0.0319114
3240.00	46.01	0.0319476
3244.00	45.94	0.0319476
3248.00	45.88	0.0319309
3252.00	45.81	0.0318990
3256.00	45.74	0.0318851
3260.00	45.68	0.0318965
3264.00	45.61	0.0318821
3268.00	45.54	0.0318512
3272.00	45.48	0.0318409
3276.00	45.41	0.0317993
3280.00	45.34	0.0317732
3284.00	45.28	0.0317496
3288.00	45.21	0.0317077
3292.00	45.14	0.0317044
3296.00	45.08	0.0317073
3300.00	45.01	0.0316647
3304.00	44.94	0.0316457
3308.00	44.88	0.0316133
3312.00	44.81	0.0315963
3316.00	44.74	0.0315814
3320.00	44.68	0.0315534
3324.00	44.61	0.0315249
3328.00	44.54	0.0314997
3332.00	44.48	0.0314921
3336.00	44.41	0.0314609
3340.00	44.34	0.0314652
3344.00	44.28	0.0314429
3348.00	44.21	0.0314426
3352.00	44.14	0.0314323
3356.00	44.08	0.0314382
3360.00	44.01	0.0314313
3364.00	43.94	0.0314198
3368.00	43.88	0.0314393
3372.00	43.81	0.0314265
3376.00	43.74	0.0314350
3380.00	43.68	0.0313915
3384.00	43.61	0.0313873
3388.00	43.54	0.0313623
3392.00	43.48	0.0313692
3396.00	43.41	0.0313569
3400.00	43.34	0.0313512
3404.00	43.28	0.0313239
3408.00	43.21	0.0313107
3412.00	43.14	0.0312703
3416.00	43.08	0.0312594
3420.00	43.01	0.0312547
3424.00	42.94	0.0312111
3428.00	42.88	0.0311711
3432.00	42.81	0.0311650
3436.00	42.74	0.0311448
3440.00	42.68	0.0311421
3444.00	42.61	0.0311303
3448.00	42.54	0.0311002
3452.00	42.48	0.0311038
3456.00	42.41	0.0310847
3460.00	42.34	0.0310617
3464.00	42.28	0.0310438
3468.00	42.21	0.0310302
3472.00	42.14	0.0310378
3476.00	42.08	0.0310517
3480.00	42.01	0.0310339
3484.00	41.94	0.0310170
3488.00	41.88	0.0309995
3492.00	41.81	0.0310117
3496.00	41.74	0.0309918
3500.00	41.68	0.0310009
3504.00	41.61	0.0309829
3508.00	41.54	0.0309825
3512.00	41.48	0.0309530
3516.00	41.41	0.0309369
3520.00	41.34	0.0308943
3524.00	41.28	0.0309037
3528.00	41.21	0.0308927
3532.00	41.14	0.0308694
3536.00	41.08	0.0308709
3540.00	41.01	0.0308754
3544.00	40.94	0.0308747
3548.00	40.88	0.0308566
3552.00	40.81	0.0308421
3556.00	40.74	0.0308273
3560.00	40.68	0.0307986
3564.00	40.61	0.0307880
3568.00	40.54	0.0307960
3572.00	40.48	0.0307666
3576.00	40.41	0.0307768
3580.00	40.34	0.0307593
3584.00	40.28	0.0307578
3588.00	40.21	0.0307428
3592.00	40.14	0.0307446
3596.00	40.08	0.0307285
3600.00	40.01	0.0307252
3604.00	39.94	0.0306938
3608.00	39.88	0.0306882
3612.00	39.81	0.0306610
3616.00	39.74	0.0306123
3620.00	39.68	0.0306190
3624.00	39.61	0.0305975
3628.00	39.54	0.0305904
3632.00	39.48	0.0305486
3636.00	39.41	0.0305435
3640.00	39.34	0.0305533
3644.00	39.28	0.0305562
3648.00	39.21	0.0305462
3652.00	39.14	0.0305113
3656.00	39.08	0.0305015
3660.00	39.01	0.0304860
3664.00	38.94	0.0304583
3668.00	38.88	0.0304441
3672.00	38.81	0.0304221
3676.00	38.74	0.0304051
3680.00	38.68	0.0304116
3684.00	38.61	0.0303707
3688.00	38.54	0.0303460
3692.00	38.47	0.0303510
3696.00	38.41	0.0303550
3700.00	38.34	0.0303580
3704.00	38.28	0.0303665
3708.00	38.21	0.0303472
3712.00	38.14	0.0303545
3716.00	38.08	0.0303325
3720.00	38.01	0.0303267
3724.00	37.94	0.0302787
3728.00	37.88	0.0302582
3732.00	37.81	0.0302498
3736.00	37.74	0.0302367
3740.00	37.68	0.0302204
3744.00	37.61	0.0302047
3748.00	37.54	0.0302056
3752.00	37.48	0.0301971
3756.00	37.41	0.0301973
3760.00	37.34	0.0301778
3764.00	37.28	0.0301767
3768.00	37.21	0.0301486
3772.00	37.14	0.0301524
3776.00	37.08	0.0301471
3780.00	37.01	0.0301644
3784.00	36.94	0.0301491
3788.00	36.88	0.0300943
3792.00	36.81	0.0300836
3796.00	36.74	0.0300589
3800.00	36.68	0.0300509
3804.00	36.61	0.0300341
3808.00	36.54	0.0300304
3812.00	36.48	0.0300148
3816.00	36.41	0.0299932
3820.00	36.34	0.0300074
3824.00	36.27	0.0299937
3828.00	36.21	0.0299695
3832.00	36.14	0.0299436
3836.00	36.08	0.0299368
3840.00	36.01	0.0299433
3844.00	35.94	0.0299330
3848.00	35.88	0.0299436
3852.00	35.81	0.0299058
3856.00	35.74	0.0298950
3860.00	35.68	0.0298771
3864.00	35.61	0.0298585
3868.00	35.54	0.0298515
3872.00	35.48	0.0298539
3876.00	35.41	0.0298626
3880.00	35.34	0.0298454
3884.00	35.28	0.0298403
3888.00	35.21	0.0298402
3892.00	35.14	0.0298335
3896.00	35.08	0.0298125
3900.00	35.01	0.0298049
3904.00	34.94	0.0297984
3908.00	34.88	0.0297615
3912.00	34.81	0.0297655
3916.00	34.74	0.0297606
3920.00	34.68	0.0297393
3924.00	34.61	0.0296895
3928.00	34.54	0.0296854
3932.00	34.48	0.0296825
3936.00	34.41	0.0296934
3940.00	34.34	0.0296698
3944.00	34.28	0.0296697
3948.00	34.21	0.0296425
3952.00	34.14	0.0296222
3956.00	34.08	0.0296159
3960.00	34.01	0.0296014
3964.00	33.94	0.0296130
3968.00	33.88	0.0296185
3972.00	33.81	0.0296189
3976.00	33.74	0.0296127
3980.00	33.68	0.0296228
3984.00	33.61	0.0296346
3988.00	33.54	0.0296291
3992.00	33.48	0.0296163
3996.00	33.41	0.0296101
4000.00	33.34	0.0295943
4004.00	33.28	0.0296128
4008.00	33.21	0.0295861
4012.00	33.14	0.0295634
4016.00	33.08	0.0295411
4020.00	33.01	0.0295193
4024.00	32.94	0.0294827
4028.00	32.87	0.0294907
4032.00	32.81	0.0294869
4036.00	32.74	0.0294714
4040.00	32.68	0.0294284
4044.00	32.61	0.0293994
4048.00	32.54	0.0294115
4052.00	32.48	0.0294031
4056.00	32.41	0.0293918
4060.00	32.34	0.0293760
4064.00	32.27	0.0293817
4068.00	32.21	0.0293819
4072.00	32.14	0.0293643
4076.00	32.08	0.0293453
4080.00	32.01	0.0293426
4084.00	31.94	0.0293179
4088.00	31.88	0.0293181
4092.00	31.81	0.0293265
4096.00	31.74	0.0293076
4100.00	31.68	0.0293003
4104.00	31.61	0.0292663
4108.00	31.54	0.0292480
4112.00	31.48	0.0292395
4116.00	31.41	0.0292237
4120.00	31.34	0.0292205
4124.00	31.28	0.0292128
4128.00	31.21	0.0292344
4132.00	31.14	0.0292433
4136.00	31.08	0.0292672
4140.00	31.01	0.0292326
4144.00	30.94	0.0292226
4148.00	30.88	0.0292193
4152.00	30.81	0.0292152
4156.00	30.74	0.0292151
4160.00	30.68	0.0291952
4164.00	30.61	0.0291753
4168.00	30.54	0.0291697
4172.00	30.48	0.0291638
4176.00	30.41	0.0291595
4180.00	30.34	0.0291260
4184.00	30.28	0.0290831
4188.00	30.21	0.0290323
4192.00	30.14	0.0290035
4196.00	30.08	0.0289973
4200.00	30.01	0.0290002
4204.00	29.94	0.0289976
4208.00	29.88	0.0290061
4212.00	29.81	0.0289702
4216.00	29.74	0.0289653
4220.00	29.68	0.0289652
4224.00	29.61	0.0289848
4228.00	29.54	0.0289823
4232.00	29.48	0.0289661
4236.00	29.41	0.0289458
4240.00	29.34	0.0289532
4244.00	29.28	0.0289216
4248.00	29.21	0.0289099
4252.00	29.14	0.0289035
4256.00	29.08	0.0288977
4260.00	29.01	0.0289004
4264.00	28.94	0.0288901
4268.00	28.88	0.0288730
4272.00	28.81	0.0288608
4276.00	28.74	0.0288118
4280.00	28.68	0.0288130
4284.00	28.61	0.0288133
4288.00	28.54	0.0287968
4292.00	28.48	0.0287992
4296.00	28.41	0.0288003
4300.00	28.34	0.0288004
4304.00	28.28	0.0287987
4308.00	28.21	0.0287869
4312.00	28.14	0.0287698
4316.00	28.08	0.0287639
4320.00	28.01	0.0287572
4324.00	27.94	0.0287586
4328.00	27.88	0.0287556
4332.00	27.81	0.0287504
4336.00	27.74	0.0287455
4340.00	27.68	0.0287381
4344.00	27.61	0.0287195
4348.00	27.54	0.0287046
4352.00	27.48	0.0286636
4356.00	27.41	0.0286629
4360.00	27.34	0.0286926
4364.00	27.28	0.0286935
4368.00	27.21	0.0286713
4372.00	27.14	0.0286638
4376.00	27.08	0.0286230
4380.00	27.01	0.0286289
4384.00	26.94	0.0286251
4388.00	26.88	0.0286230
4392.00	26.81	0.0286192
4396.00	26.74	0.0286101
4400.00	26.68	0.0285792
4404.00	26.61	0.0285680
4408.00	26.54	0.0285669
4412.00	26.48	0.0285461
4416.00	26.41	0.0285193
4420.00	26.34	0.0285165
4424.00	26.28	0.0285018
4428.00	26.21	0.0285053
4432.00	26.14	0.0284939
4436.00	26.08	0.0284742
4440.00	26.01	0.0284421
4444.00	25.94	0.0285431
4448.00	25.88	0.0285794
4452.00	25.81	0.0286340
4456.00	25.74	0.0286485
4460.00	25.68	0.0287083
4464.00	25.61	0.0286842
4468.00	25.54	0.0289171
4472.00	25.48	0.0290302
4476.00	25.41	0.0290704
4480.00	25.34	0.0291694
4484.00	25.28	0.0292274
4488.00	25.21	0.0292522
4492.00	25.14	0.0292440
4496.00	25.08	0.0292184
4500.00	25.01	0.0292059
4504.00	24.95	0.0292161
4508.00	24.88	0.0296716
4512.00	24.82	0.0317124
4516.00	24.76	0.0262043
4520.00	24.76	0.0770097
4524.00	24.78	0.195184
4528.00	24.79	0.273435
4532.00	24.85	0.389002
4536.00	24.98	0.697744
4540.00	24.96	0.819702
4544.00	24.90	0.826905
4548.00	24.83	0.826737
4552.00	24.77	0.823412
4556.00	24.72	0.829881
4560.00	24.67	0.888545
4564.00	24.58	0.850698
4568.00	24.49	0.821205
4572.00	24.43	0.814627
4576.00	24.39	0.821645
4580.00	24.39	0.908351
4584.00	24.33	1.01101
4588.00	24.02	0.785905
4592.00	23.76	0.481136
4596.00	23.58	0.298820
4600.00	23.45	0.191150
4604.00	23.34	0.128870
4608.00	23.25	0.0893113
4612.00	23.17	0.0651116
4616.00	23.09	0.0516472
4620.00	23.02	0.0439542
4624.00	22.95	0.0389284
4628.00	22.88	0.0363582
4632.00	22.81	0.0346134
4636.00	22.75	0.0338782
4640.00	22.68	0.0332526
4644.00	22.61	0.0326836
4648.00	22.54	0.0321461
4652.00	22.48	0.0316784
4656.00	22.41	0.0312190
4660.00	22.34	0.0308598
4664.00	22.28	0.0305354
4668.00	22.21	0.0302246
4672.00	22.14	0.0299717
4676.00	22.08	0.0297448
4680.00	22.01	0.0295540
4684.00	21.94	0.0293610
4688.00	21.88	0.0291926
4692.00	21.81	0.0290270
4696.00	21.74	0.0288860
4700.00	21.68	0.0287753
4704.00	21.61	0.0286453
4708.00	21.54	0.0285688
4712.00	21.48	0.0284588
4716.00	21.41	0.0283409
4720.00	21.34	0.0282564
4724.00	21.28	0.0281639
4728.00	21.21	0.0280678
4732.00	21.14	0.0279611
4736.00	21.08	0.0278767
4740.00	21.01	0.0277603
4744.00	20.94	0.0276538
4748.00	20.88	0.0275748
4752.00	20.81	0.0275002
4756.00	20.74	0.0274260
4760.00	20.68	0.0273591
4764.00	20.61	0.0272895
4768.00	20.54	0.0271994
4772.00	20.48	0.0271245
4776.00	20.41	0.0270797
4780.00	20.34	0.0270028
4784.00	20.28	0.0269300
4788.00	20.21	0.0268516
4792.00	20.14	0.0267905
4796.00	20.08	0.0266969
4800.00	20.01	0.0266319
4804.00	19.94	0.0265931
4808.00	19.88	0.0265531
4812.00	19.81	0.0265082
4816.00	19.74	0.0264379
4820.00	19.68	0.0263777
4824.00	19.61	0.0263152
4828.00	19.54	0.0262727
4832.00	19.48	0.0262296
4836.00	19.41	0.0261589
4840.00	19.34	0.0260905
4844.00	19.28	0.0260644
4848.00	19.21	0.0260514
4852.00	19.14	0.0260044
4856.00	19.08	0.0259677
4860.00	19.01	0.0259167
4864.00	18.94	0.0258628
4868.00	18.87	0.0257966
4872.00	18.81	0.0257265
4876.00	18.74	0.0256925
4880.00	18.67	0.0256441
4884.00	18.61	0.0255848
4888.00	18.54	0.0254991
4892.00	18.47	0.0254336
4896.00	18.41	0.0253774
4900.00	18.34	0.0253313
4904.00	18.27	0.0252777
4908.00	18.21	0.0252554
4912.00	18.14	0.0252151
4916.00	18.07	0.0251700
4920.00	18.01	0.0251378
4924.00	17.94	0.0251032
4928.00	17.88	0.0250475
4932.00	17.81	0.0250251
4936.00	17.74	0.0249417
4940.00	17.67	0.0249143
4944.00	17.61	0.0248851
4948.00	17.54	0.0248387
4952.00	17.47	0.0247748
4956.00	17.41	0.0247369
4960.00	17.34	0.0247082
4964.00	17.28	0.0246738
4968.00	17.21	0.0246404
4972.00	17.14	0.0245852
4976.00	17.07	0.0245634
4980.00	17.01	0.0245444
4984.00	16.94	0.0245069
4988.00	16.87	0.0244817
4992.00	16.81	0.0244432
4996.00	16.74	0.0243871
5000.00	16.68	0.0243555
5004.00	16.61	0.0243212
5008.00	16.54	0.0242993
5012.00	16.47	0.0242708
5016.00	16.41	0.0242288
5020.00	16.34	0.0241850
5024.00	16.27	0.0241576
5028.00	16.21	0.0241272
5032.00	16.14	0.0240666
5036.00	16.07	0.0240306
5040.00	16.01	0.0240000
5044.00	15.94	0.0239409
5048.00	15.88	0.0239180
5052.00	15.81	0.0238966
5056.00	15.74	0.0238803
5060.00	15.67	0.0238577
5064.00	15.61	0.0238257
5068.00	15.54	0.0237984
5072.00	15.47	0.0237765
5076.00	15.41	0.0237463
5080.00	15.34	0.0237142
5084.00	15.27	0.0236888
5088.00	15.21	0.0236721
5092.00	15.14	0.0236491
5096.00	15.07	0.0236050
5100.00	15.01	0.0235680
5104.00	14.94	0.0235489
5108.00	14.87	0.0235355
5112.00	14.81	0.0235228
5116.00	14.74	0.0234771
5120.00	14.68	0.0234288
5124.00	14.61	0.0233816
5128.00	14.54	0.0233454
5132.00	14.47	0.0233131
5136.00	14.41	0.0232887
5140.00	14.34	0.0232482
5144.00	14.27	0.0232135
5148.00	14.21	0.0232121
5152.00	14.14	0.0231986
5156.00	14.07	0.0231737
5160.00	14.01	0.0231483
5164.00	13.94	0.0231408
5168.00	13.88	0.0231006
5172.00	13.81	0.0230827
5176.00	13.74	0.0230649
5180.00	13.67	0.0230644
5184.00	13.61	0.0230481
5188.00	13.54	0.0229961
5192.00	13.47	0.0229895
5196.00	13.41	0.0229846
5200.00	13.34	0.0229573
5204.00	13.27	0.0229326
5208.00	13.21	0.0229123
5212.00	13.14	0.0228811
5216.00	13.07	0.0228291
5220.00	13.01	0.0228218
5224.00	12.94	0.0228047
5228.00	12.87	0.0227682
5232.00	12.81	0.0227540
5236.00	12.74	0.0227167
5240.00	12.67	0.0226976
5244.00	12.61	0.0226853
5248.00	12.54	0.0226867
5252.00	12.47	0.0226644
5256.00	12.41	0.0226692
5260.00	12.34	0.0226303
5264.00	12.27	0.0225946
5268.00	12.21	0.0225725
5272.00	12.14	0.0225285
5276.00	12.07	0.0224881
5280.00	12.01	0.0224835
5284.00	11.94	0.0224670
5288.00	11.87	0.0224522
5292.00	11.81	0.0224321
5296.00	11.74	0.0224204
5300.00	11.67	0.0223903
5304.00	11.61	0.0223731
5308.00	11.54	0.0223628
5312.00	11.47	0.0223189
5316.00	11.41	0.0222966
5320.00	11.34	0.0222779
5324.00	11.27	0.0222808
5328.00	11.21	0.0222840
5332.00	11.14	0.0222493
5336.00	11.07	0.0222050
5340.00	11.01	0.0221490
5344.00	10.94	0.0221338
5348.00	10.87	0.0221009
5352.00	10.81	0.0220826
5356.00	10.74	0.0220653
5360.00	10.67	0.0220616
5364.00	10.61	0.0220332
5368.00	10.54	0.0220116
5372.00	10.47	0.0219847
5376.00	10.41	0.0219870
5380.00	10.34	0.0219472
5384.00	10.27	0.0219074
5388.00	10.21	0.0218989
5392.00	10.14	0.0218984
5396.00	10.07	0.0219069
5400.00	10.01	0.0218756
5404.00	9.94	0.0218619
5408.00	9.87	0.0218245
5412.00	9.81	0.0218313
5416.00	9.74	0.0218100
5420.00	9.67	0.0217881
5424.00	9.61	0.0217660
5428.00	9.54	0.0217675
5432.00	9.47	0.0217197
5436.00	9.41	0.0216880
5440.00	9.34	0.0216673
5444.00	9.27	0.0216491
5448.00	9.21	0.0216212
5452.00	9.14	0.0216044
5456.00	9.07	0.0215976
5460.00	9.01	0.0215774
5464.00	8.94	0.0215536
5468.00	8.87	0.0215231
5472.00	8.81	0.0215054
5476.00	8.74	0.0214955
5480.00	8.67	0.0214690
5484.00	8.61	0.0214597
5488.00	8.54	0.0214324
5492.00	8.47	0.0214275
5496.00	8.41	0.0214388
5500.00	8.34	0.0214063
5504.00	8.27	0.0214021
5508.00	8.21	0.0213705
5512.00	8.14	0.0213512
5516.00	8.07	0.0213551
5520.00	8.01	0.0213236
5524.00	7.94	0.0212702
5528.00	7.87	0.0212487
5532.00	7.81	0.0212220
5536.00	7.74	0.0212120
5540.00	7.67	0.0212004
5544.00	7.61	0.0211857
5548.00	7.54	0.0211792
5552.00	7.47	0.0211732
5556.00	7.41	0.0211557
5560.00	7.34	0.0211299
5564.00	7.27	0.0211085
5568.00	7.21	0.0210962
5572.00	7.14	0.0210665
5576.00	7.07	0.0210088
5580.00	7.01	0.0210225
5584.00	6.94	0.0209940
5588.00	6.87	0.0209830
5592.00	6.81	0.0209746
5596.00	6.74	0.0209519
5600.00	6.67	0.0209549
5604.00	6.61	0.0209352
5608.00	6.54	0.0209206
5612.00	6.47	0.0209000
5616.00	6.41	0.0208687
5620.00	6.34	0.0208284
5624.00	6.27	0.0207845
5628.00	6.21	0.0207943
5632.00	6.14	0.0207931
5636.00	6.07	0.0207592
5640.00	6.01	0.0207419
5644.00	5.94	0.0207395
5648.00	5.87	0.0207158
5652.00	5.81	0.0207115
5656.00	5.74	0.0206980
5660.00	5.67	0.0206859
5664.00	5.61	0.0206880
5668.00	5.54	0.0206688
5672.00	5.47	0.0206613
5676.00	5.41	0.0206322
5680.00	5.34	0.0206277
5684.00	5.27	0.0206249
5688.00	5.21	0.0206201
5692.00	5.14	0.0206212
5696.00	5.07	0.0205859
5700.00	5.01	0.0205750
5704.00	4.94	0.0205458
5708.00	4.87	0.0205252
5712.00	4.81	0.0204866
5716.00	4.74	0.0204699
5720.00	4.67	0.0204542
5724.00	4.61	0.0204518
5728.00	4.54	0.0204332
5732.00	4.48	0.0204155
5736.00	4.41	0.0204281
5740.00	4.34	0.0204188
5744.00	4.27	0.0204190
5748.00	4.21	0.0204175
5752.00	4.14	0.0203880
5756.00	4.07	0.0203844
5760.00	4.01	0.0203981
5764.00	3.94	0.0203768
5768.00	3.87	0.0203625
5772.00	3.81	0.0203440
5776.00	3.74	0.0203172
5780.00	3.67	0.0203074
5784.00	3.61	0.0202814
5788.00	3.54	0.0202649
5792.00	3.47	0.0202497
5796.00	3.41	0.0202438
5800.00	3.34	0.0202367
5804.00	3.27	0.0202197
5808.00	3.21	0.0202142
5812.00	3.14	0.0201854
5816.00	3.07	0.0201786
5820.00	3.01	0.0201473
5824.00	2.94	0.0201359
5828.00	2.87	0.0201262
5832.00	2.81	0.0201412
5836.00	2.74	0.0201102
5840.00	2.67	0.0200921
5844.00	2.60	0.0200964
5848.00	2.54	0.0201000
5852.00	2.47	0.0200812
5856.00	2.41	0.0200553
5860.00	2.34	0.0200438
5864.00	2.27	0.0200613
5868.00	2.21	0.0200468
5872.00	2.14	0.0200325
5876.00	2.07	0.0200530
5880.00	2.01	0.0200175
5884.00	1.94	0.0200190
5888.00	1.87	0.0199804
5892.00	1.81	0.0199611
5896.00	1.74	0.0199563
5900.00	1.67	0.0199328
5904.00	1.61	0.0199171
5908.00	1.54	0.0198678
5912.00	1.48	0.0198570
5916.00	1.41	0.0198519
5920.00	1.34	0.0198409
5924.00	1.27	0.0198891
5928.00	1.21	0.0198512
5932.00	1.14	0.0198398
5936.00	1.07	0.0198200
5940.00	1.01	0.0198177
5944.00	0.94	0.0198036
5948.00	0.87	0.0198077
5952.00	0.81	0.0197927
5956.00	0.74	0.0198055
5960.00	0.67	0.0197928
5964.00	0.61	0.0197812
5968.00	0.54	0.0197914
5972.00	0.47	0.0198025
5976.00	0.41	0.0198125
5980.00	0.34	0.0197909
5984.00	0.28	0.0197647
5988.00	0.21	0.0197473
5992.00	0.14	0.0197312
5996.00	0.07	0.0196985
5999.90	0.01	0.0197094