File: Differential scanning calorimetry/8OCB Squalane/8OCB SqA wt fraction 183.txt
Filename	8OCBSA183
Instrument name	DSC2A-00101 (192.168.10.4)
Operator	Yuma
rundate	5/30/2021
Sample name	8OCBSA183
proceduresegments	Data Off ; Equilibrate 150.00 °C; Isothermal 10.0 min; Equilibrate 100.00 °C; Isothermal 5.0 min; Data On ; Ramp 1.00 °C/min to 0.00 °C; Ramp 5.00 °C/min to 150.00 °C; Data Off ; Isothermal 10.0 min; Modulate Temperature 1.00 °C for 60.0 s; Equilibrate 100.00 °C; Isothermal 10.0 min; Data On ; Ramp 1.00 °C/min to 0.00 °C; Ramp 3.00 °C/min to 100.00 °C; Jump 30.00 °C
[step]
Ramp 1.00 °C/min to 0.00 °C
Time	Temperature	Heat Flow (Normalized)
s	°C	W/g
0.00000	99.84	9.87072e-4
4.10000	99.83	1.14219e-3
8.20000	99.80	-2.48751e-4
12.3000	99.76	1.48364e-3
16.4000	99.70	0.0118287
20.5000	99.64	0.0189132
24.6000	99.58	0.0236036
28.7000	99.51	0.0257419
32.8000	99.44	0.0270356
36.9000	99.38	0.0283585
41.0000	99.31	0.0292145
45.1000	99.24	0.0298908
49.2000	99.17	0.0305075
53.3000	99.10	0.0309697
57.4000	99.04	0.0312871
61.5000	98.97	0.0315659
65.6000	98.90	0.0318117
69.7000	98.83	0.0319648
73.8000	98.76	0.0321226
77.9000	98.69	0.0322114
82.0000	98.63	0.0322809
86.1000	98.56	0.0323292
90.2000	98.49	0.0323699
94.3000	98.42	0.0324145
98.4000	98.35	0.0324375
102.500	98.29	0.0323799
106.600	98.22	0.0324069
110.700	98.15	0.0324174
114.800	98.08	0.0324445
118.900	98.01	0.0324958
123.000	97.94	0.0324870
127.100	97.88	0.0324930
131.200	97.81	0.0324927
135.300	97.74	0.0324589
139.400	97.67	0.0324485
143.500	97.60	0.0324607
147.600	97.53	0.0325154
151.700	97.47	0.0324906
155.800	97.40	0.0324935
159.900	97.33	0.0324935
164.000	97.26	0.0324926
168.100	97.19	0.0324849
172.200	97.12	0.0324722
176.300	97.06	0.0325013
180.400	96.99	0.0324831
184.500	96.92	0.0324752
188.600	96.85	0.0324609
192.700	96.78	0.0324251
196.800	96.71	0.0324375
200.900	96.65	0.0323940
205.000	96.58	0.0323933
209.100	96.51	0.0323702
213.200	96.44	0.0323521
217.300	96.37	0.0323465
221.400	96.30	0.0323366
225.500	96.24	0.0323036
229.600	96.17	0.0322847
233.700	96.10	0.0322991
237.800	96.03	0.0322828
241.900	95.96	0.0323291
246.000	95.90	0.0323280
250.100	95.83	0.0323597
254.200	95.76	0.0323632
258.300	95.69	0.0323496
262.400	95.62	0.0323110
266.500	95.55	0.0323112
270.600	95.48	0.0323027
274.700	95.42	0.0323172
278.800	95.35	0.0323052
282.900	95.28	0.0322796
287.000	95.21	0.0322972
291.100	95.14	0.0323002
295.200	95.07	0.0323096
299.300	95.01	0.0323081
303.400	94.94	0.0322739
307.500	94.87	0.0322667
311.600	94.80	0.0322605
315.700	94.73	0.0322679
319.800	94.66	0.0322481
323.900	94.60	0.0322736
328.000	94.53	0.0323167
332.100	94.46	0.0323008
336.200	94.39	0.0323006
340.300	94.32	0.0322890
344.400	94.25	0.0322476
348.500	94.19	0.0322201
352.600	94.12	0.0322169
356.700	94.05	0.0321883
360.800	93.98	0.0321735
364.900	93.91	0.0321550
369.000	93.84	0.0321184
373.100	93.78	0.0321331
377.200	93.71	0.0321433
381.300	93.64	0.0321091
385.400	93.57	0.0320936
389.500	93.50	0.0321248
393.600	93.44	0.0321170
397.700	93.37	0.0321338
401.800	93.30	0.0321088
405.900	93.23	0.0321340
410.000	93.16	0.0320987
414.100	93.09	0.0320941
418.200	93.03	0.0320690
422.300	92.96	0.0320848
426.400	92.89	0.0321210
430.500	92.82	0.0321002
434.600	92.75	0.0321052
438.700	92.68	0.0320669
442.800	92.62	0.0320612
446.900	92.55	0.0320145
451.000	92.48	0.0320117
455.100	92.41	0.0320368
459.200	92.34	0.0320418
463.300	92.27	0.0320143
467.400	92.20	0.0319915
471.500	92.14	0.0320376
475.600	92.07	0.0320048
479.700	92.00	0.0319866
483.800	91.93	0.0320114
487.900	91.86	0.0319777
492.000	91.80	0.0319521
496.100	91.73	0.0319539
500.200	91.66	0.0319535
504.300	91.59	0.0319468
508.400	91.52	0.0319434
512.500	91.45	0.0319120
516.600	91.39	0.0319151
520.700	91.32	0.0319288
524.800	91.25	0.0319478
528.900	91.18	0.0318889
533.000	91.11	0.0319705
537.100	91.04	0.0319759
541.200	90.97	0.0319575
545.300	90.91	0.0319844
549.400	90.84	0.0319858
553.500	90.77	0.0319686
557.600	90.70	0.0319492
561.700	90.63	0.0319454
565.800	90.57	0.0318927
569.900	90.50	0.0318916
574.000	90.43	0.0318522
578.100	90.36	0.0318782
582.200	90.29	0.0318662
586.300	90.22	0.0318997
590.400	90.16	0.0319090
594.500	90.09	0.0319059
598.600	90.02	0.0319030
602.700	89.95	0.0319174
606.800	89.88	0.0319233
610.900	89.81	0.0319255
615.000	89.75	0.0318953
619.100	89.68	0.0318863
623.200	89.61	0.0319163
627.300	89.54	0.0318695
631.400	89.47	0.0319043
635.500	89.40	0.0318816
639.600	89.34	0.0318982
643.700	89.27	0.0318678
647.800	89.20	0.0318831
651.900	89.13	0.0318983
656.000	89.06	0.0318828
660.100	88.99	0.0318754
664.200	88.93	0.0318272
668.300	88.86	0.0318254
672.400	88.79	0.0318245
676.500	88.72	0.0318157
680.600	88.65	0.0317778
684.700	88.58	0.0317735
688.800	88.52	0.0317400
692.900	88.45	0.0317499
697.000	88.38	0.0317580
701.100	88.31	0.0317375
705.200	88.24	0.0317111
709.300	88.17	0.0317385
713.400	88.11	0.0317339
717.500	88.04	0.0317236
721.600	87.97	0.0317356
725.700	87.90	0.0316656
729.800	87.83	0.0316698
733.900	87.76	0.0316885
738.000	87.70	0.0316680
742.100	87.63	0.0316721
746.200	87.56	0.0316207
750.300	87.49	0.0316211
754.400	87.42	0.0316439
758.500	87.35	0.0316584
762.600	87.29	0.0316634
766.700	87.22	0.0316902
770.800	87.15	0.0316937
774.900	87.08	0.0316890
779.000	87.01	0.0316954
783.100	86.94	0.0317105
787.200	86.88	0.0316970
791.300	86.81	0.0317032
795.400	86.74	0.0316987
799.500	86.67	0.0316603
803.600	86.60	0.0316239
807.700	86.53	0.0316023
811.800	86.47	0.0315821
815.900	86.40	0.0315723
820.000	86.33	0.0315763
824.100	86.26	0.0316290
828.200	86.19	0.0316479
832.300	86.12	0.0315955
836.400	86.06	0.0315798
840.500	85.99	0.0315775
844.600	85.92	0.0315452
848.700	85.85	0.0315401
852.800	85.78	0.0315496
856.900	85.71	0.0315706
861.000	85.65	0.0316052
865.100	85.58	0.0316155
869.200	85.51	0.0316168
873.300	85.44	0.0315979
877.400	85.37	0.0315635
881.500	85.30	0.0315497
885.600	85.24	0.0315574
889.700	85.17	0.0315512
893.800	85.10	0.0315681
897.900	85.03	0.0315559
902.000	84.96	0.0315337
906.100	84.89	0.0315155
910.200	84.83	0.0314777
914.300	84.76	0.0314778
918.400	84.69	0.0314850
922.500	84.62	0.0315018
926.600	84.55	0.0315178
930.700	84.49	0.0315065
934.800	84.42	0.0314999
938.900	84.35	0.0314953
943.000	84.28	0.0315010
947.100	84.21	0.0314391
951.200	84.14	0.0314343
955.300	84.08	0.0314220
959.400	84.01	0.0313473
963.500	83.94	0.0313608
967.600	83.87	0.0313782
971.700	83.80	0.0313852
975.800	83.73	0.0314169
979.900	83.66	0.0314248
984.000	83.60	0.0314038
988.100	83.53	0.0314185
992.200	83.46	0.0314567
996.300	83.39	0.0314324
1000.40	83.32	0.0313809
1004.50	83.26	0.0313706
1008.60	83.19	0.0313620
1012.70	83.12	0.0313501
1016.80	83.05	0.0313580
1020.90	82.98	0.0313706
1025.00	82.91	0.0313875
1029.10	82.84	0.0314063
1033.20	82.78	0.0314155
1037.30	82.71	0.0314076
1041.40	82.64	0.0314242
1045.50	82.57	0.0313990
1049.60	82.50	0.0313889
1053.70	82.43	0.0313845
1057.80	82.37	0.0313714
1061.90	82.30	0.0313659
1066.00	82.23	0.0313460
1070.10	82.16	0.0313395
1074.20	82.09	0.0313094
1078.30	82.03	0.0313600
1082.40	81.96	0.0313638
1086.50	81.89	0.0313247
1090.60	81.82	0.0313441
1094.70	81.75	0.0313594
1098.80	81.68	0.0314033
1102.90	81.61	0.0313925
1107.00	81.55	0.0313899
1111.10	81.48	0.0313796
1115.20	81.41	0.0314073
1119.30	81.34	0.0313903
1123.40	81.27	0.0313901
1127.50	81.20	0.0313714
1131.60	81.14	0.0313637
1135.70	81.07	0.0313416
1139.80	81.00	0.0313524
1143.90	80.93	0.0313422
1148.00	80.86	0.0313189
1152.10	80.80	0.0312990
1156.20	80.73	0.0313162
1160.30	80.66	0.0312841
1164.40	80.59	0.0312801
1168.50	80.52	0.0312710
1172.60	80.45	0.0313080
1176.70	80.39	0.0313022
1180.80	80.32	0.0312797
1184.90	80.25	0.0313018
1189.00	80.18	0.0313200
1193.10	80.11	0.0313565
1197.20	80.04	0.0313370
1201.30	79.98	0.0313394
1205.40	79.91	0.0313817
1209.50	79.84	0.0314004
1213.60	79.77	0.0314393
1217.70	79.70	0.0313902
1221.80	79.63	0.0313933
1225.90	79.57	0.0313530
1230.00	79.50	0.0313186
1234.10	79.43	0.0313418
1238.20	79.36	0.0313034
1242.30	79.29	0.0312688
1246.40	79.22	0.0312200
1250.50	79.15	0.0312234
1254.60	79.09	0.0312346
1258.70	79.02	0.0312100
1262.80	78.95	0.0312106
1266.90	78.88	0.0312201
1271.00	78.81	0.0312163
1275.10	78.75	0.0312073
1279.20	78.68	0.0311911
1283.30	78.61	0.0311787
1287.40	78.54	0.0311658
1291.50	78.47	0.0311853
1295.60	78.40	0.0311913
1299.70	78.34	0.0311586
1303.80	78.27	0.0311669
1307.90	78.20	0.0311673
1312.00	78.13	0.0311788
1316.10	78.06	0.0311775
1320.20	77.99	0.0311560
1324.30	77.93	0.0311720
1328.40	77.86	0.0311775
1332.50	77.79	0.0311883
1336.60	77.72	0.0312143
1340.70	77.65	0.0312100
1344.80	77.58	0.0312108
1348.90	77.52	0.0311913
1353.00	77.45	0.0311742
1357.10	77.38	0.0311649
1361.20	77.31	0.0311544
1365.30	77.24	0.0311669
1369.40	77.17	0.0311316
1373.50	77.11	0.0311283
1377.60	77.04	0.0311061
1381.70	76.97	0.0311447
1385.80	76.90	0.0311238
1389.90	76.83	0.0311646
1394.00	76.76	0.0311495
1398.10	76.70	0.0311401
1402.20	76.63	0.0311205
1406.30	76.56	0.0311439
1410.40	76.49	0.0311638
1414.50	76.42	0.0311352
1418.60	76.36	0.0311246
1422.70	76.29	0.0311413
1426.80	76.22	0.0311194
1430.90	76.15	0.0311402
1435.00	76.08	0.0311398
1439.10	76.01	0.0311654
1443.20	75.94	0.0312054
1447.30	75.88	0.0311839
1451.40	75.81	0.0311747
1455.50	75.74	0.0311434
1459.60	75.67	0.0311559
1463.70	75.60	0.0311612
1467.80	75.54	0.0311472
1471.90	75.47	0.0311258
1476.00	75.40	0.0311342
1480.10	75.33	0.0311270
1484.20	75.26	0.0311519
1488.30	75.19	0.0311263
1492.40	75.12	0.0311508
1496.50	75.06	0.0311831
1500.60	74.99	0.0311545
1504.70	74.92	0.0311811
1508.80	74.85	0.0311790
1512.90	74.78	0.0311842
1517.00	74.71	0.0312049
1521.10	74.65	0.0312090
1525.20	74.58	0.0311996
1529.30	74.51	0.0312087
1533.40	74.44	0.0312078
1537.50	74.37	0.0312059
1541.60	74.30	0.0311719
1545.70	74.24	0.0311694
1549.80	74.17	0.0311492
1553.90	74.10	0.0311559
1558.00	74.03	0.0311371
1562.10	73.96	0.0311354
1566.20	73.90	0.0311648
1570.30	73.83	0.0311405
1574.40	73.76	0.0311138
1578.50	73.69	0.0311251
1582.60	73.62	0.0311251
1586.70	73.55	0.0311330
1590.80	73.48	0.0311392
1594.90	73.42	0.0311462
1599.00	73.35	0.0311750
1603.10	73.28	0.0311659
1607.20	73.21	0.0311694
1611.30	73.14	0.0311660
1615.40	73.08	0.0311680
1619.50	73.01	0.0311599
1623.60	72.94	0.0311777
1627.70	72.87	0.0312179
1631.80	72.80	0.0312375
1635.90	72.73	0.0312472
1640.00	72.66	0.0312260
1644.10	72.60	0.0312188
1648.20	72.53	0.0311634
1652.30	72.46	0.0311279
1656.40	72.39	0.0311384
1660.50	72.32	0.0311275
1664.60	72.26	0.0311138
1668.70	72.19	0.0311047
1672.80	72.12	0.0311464
1676.90	72.05	0.0311629
1681.00	71.98	0.0311926
1685.10	71.91	0.0312344
1689.20	71.85	0.0312402
1693.30	71.78	0.0312342
1697.40	71.71	0.0311942
1701.50	71.64	0.0312015
1705.60	71.57	0.0312028
1709.70	71.50	0.0312059
1713.80	71.44	0.0311738
1717.90	71.37	0.0311392
1722.00	71.30	0.0311648
1726.10	71.23	0.0311566
1730.20	71.16	0.0311747
1734.30	71.09	0.0312057
1738.40	71.02	0.0312347
1742.50	70.96	0.0312159
1746.60	70.89	0.0312190
1750.70	70.82	0.0312344
1754.80	70.75	0.0312215
1758.90	70.68	0.0311983
1763.00	70.61	0.0312032
1767.10	70.55	0.0312227
1771.20	70.48	0.0312227
1775.30	70.41	0.0311825
1779.40	70.34	0.0311948
1783.50	70.27	0.0311928
1787.60	70.21	0.0311870
1791.70	70.14	0.0311833
1795.80	70.07	0.0311807
1799.90	70.00	0.0312024
1804.00	69.93	0.0312006
1808.10	69.86	0.0312309
1812.20	69.80	0.0312073
1816.30	69.73	0.0312197
1820.40	69.66	0.0312291
1824.50	69.59	0.0312403
1828.60	69.52	0.0312931
1832.70	69.45	0.0313067
1836.80	69.39	0.0313232
1840.90	69.32	0.0312912
1845.00	69.25	0.0312973
1849.10	69.18	0.0313083
1853.20	69.11	0.0313543
1857.30	69.04	0.0313527
1861.40	68.98	0.0313462
1865.50	68.91	0.0313495
1869.60	68.84	0.0313678
1873.70	68.77	0.0313684
1877.80	68.70	0.0313638
1881.90	68.63	0.0313487
1886.00	68.57	0.0313670
1890.10	68.50	0.0313595
1894.20	68.43	0.0313882
1898.30	68.36	0.0314023
1902.40	68.29	0.0314379
1906.50	68.22	0.0314077
1910.60	68.16	0.0314449
1914.70	68.09	0.0314424
1918.80	68.02	0.0314452
1922.90	67.95	0.0314878
1927.00	67.88	0.0314635
1931.10	67.81	0.0314711
1935.20	67.75	0.0314643
1939.30	67.68	0.0314881
1943.40	67.61	0.0315096
1947.50	67.54	0.0314921
1951.60	67.47	0.0315022
1955.70	67.40	0.0314643
1959.80	67.34	0.0314552
1963.90	67.27	0.0314318
1968.00	67.20	0.0314518
1972.10	67.13	0.0314626
1976.20	67.06	0.0314718
1980.30	67.00	0.0315131
1984.40	66.93	0.0315506
1988.50	66.86	0.0315730
1992.60	66.79	0.0315894
1996.70	66.72	0.0315534
2000.80	66.65	0.0315790
2004.90	66.59	0.0316054
2009.00	66.52	0.0316056
2013.10	66.45	0.0316395
2017.20	66.38	0.0316560
2021.30	66.31	0.0316634
2025.40	66.24	0.0316922
2029.50	66.17	0.0317148
2033.60	66.11	0.0317172
2037.70	66.04	0.0317390
2041.80	65.97	0.0317419
2045.90	65.90	0.0317510
2050.00	65.83	0.0317750
2054.10	65.77	0.0317670
2058.20	65.70	0.0317864
2062.30	65.63	0.0318029
2066.40	65.56	0.0318366
2070.50	65.49	0.0318270
2074.60	65.42	0.0318850
2078.70	65.36	0.0318995
2082.80	65.29	0.0319125
2086.90	65.22	0.0319330
2091.00	65.15	0.0319516
2095.10	65.08	0.0319619
2099.20	65.01	0.0319606
2103.30	64.95	0.0319689
2107.40	64.88	0.0319847
2111.50	64.81	0.0319928
2115.60	64.74	0.0319835
2119.70	64.67	0.0320266
2123.80	64.60	0.0320286
2127.90	64.53	0.0320599
2132.00	64.47	0.0320850
2136.10	64.40	0.0321047
2140.20	64.33	0.0321066
2144.30	64.26	0.0321432
2148.40	64.19	0.0321822
2152.50	64.13	0.0321947
2156.60	64.06	0.0322076
2160.70	63.99	0.0322437
2164.80	63.92	0.0322700
2168.90	63.85	0.0322830
2173.00	63.78	0.0323316
2177.10	63.72	0.0323726
2181.20	63.65	0.0324239
2185.30	63.58	0.0324280
2189.40	63.51	0.0324393
2193.50	63.44	0.0324853
2197.60	63.37	0.0325534
2201.70	63.31	0.0325644
2205.80	63.24	0.0325894
2209.90	63.17	0.0325825
2214.00	63.10	0.0326149
2218.10	63.03	0.0326555
2222.20	62.97	0.0326862
2226.30	62.90	0.0327227
2230.40	62.83	0.0327737
2234.50	62.76	0.0328159
2238.60	62.69	0.0328586
2242.70	62.62	0.0329086
2246.80	62.55	0.0329324
2250.90	62.49	0.0329612
2255.00	62.42	0.0329916
2259.10	62.35	0.0330274
2263.20	62.28	0.0330739
2267.30	62.21	0.0331490
2271.40	62.14	0.0331954
2275.50	62.08	0.0332155
2279.60	62.01	0.0332766
2283.70	61.94	0.0333580
2287.80	61.87	0.0334157
2291.90	61.80	0.0334462
2296.00	61.73	0.0334964
2300.10	61.67	0.0334915
2304.20	61.60	0.0335313
2308.30	61.53	0.0335834
2312.40	61.46	0.0336501
2316.50	61.39	0.0337135
2320.60	61.32	0.0338026
2324.70	61.26	0.0338876
2328.80	61.19	0.0339550
2332.90	61.12	0.0340257
2337.00	61.05	0.0341114
2341.10	60.98	0.0342116
2345.20	60.92	0.0342812
2349.30	60.85	0.0343561
2353.40	60.78	0.0344593
2357.50	60.71	0.0345825
2361.60	60.64	0.0346684
2365.70	60.57	0.0347755
2369.80	60.51	0.0348890
2373.90	60.44	0.0350358
2378.00	60.37	0.0351626
2382.10	60.30	0.0353517
2386.20	60.23	0.0355212
2390.30	60.17	0.0358608
2394.40	60.10	0.0362962
2398.50	60.04	0.0463513
2402.60	59.97	0.0536758
2406.70	59.91	0.0587573
2410.80	59.84	0.0602945
2414.90	59.77	0.0605955
2419.00	59.70	0.0605149
2423.10	59.63	0.0599976
2427.20	59.58	0.0614592
2431.30	59.53	0.105155
2435.40	59.47	0.139778
2439.50	59.42	0.176927
2443.60	59.34	0.164391
2447.70	59.25	0.134066
2451.80	59.16	0.0928293
2455.90	59.09	0.0672750
2460.00	59.02	0.0687596
2464.10	58.95	0.0698100
2468.20	58.88	0.0662183
2472.30	58.81	0.0589726
2476.40	58.74	0.0542592
2480.50	58.67	0.0517622
2484.60	58.60	0.0495529
2488.70	58.53	0.0485286
2492.80	58.46	0.0472866
2496.90	58.39	0.0463753
2501.00	58.32	0.0455560
2505.10	58.26	0.0448121
2509.20	58.19	0.0441603
2513.30	58.12	0.0436747
2517.40	58.05	0.0433378
2521.50	57.98	0.0430988
2525.60	57.91	0.0429532
2529.70	57.85	0.0429573
2533.80	57.78	0.0431415
2537.90	57.71	0.0437696
2542.00	57.64	0.0450466
2546.10	57.57	0.0455119
2550.20	57.50	0.0453746
2554.30	57.44	0.0445170
2558.40	57.37	0.0434165
2562.50	57.30	0.0424270
2566.60	57.23	0.0414044
2570.70	57.16	0.0404192
2574.80	57.09	0.0394815
2578.90	57.02	0.0386148
2583.00	56.95	0.0378627
2587.10	56.88	0.0371576
2591.20	56.81	0.0365778
2595.30	56.75	0.0360777
2599.40	56.68	0.0356050
2603.50	56.61	0.0352070
2607.60	56.54	0.0348746
2611.70	56.47	0.0345518
2615.80	56.41	0.0343112
2619.90	56.34	0.0340764
2624.00	56.27	0.0338549
2628.10	56.20	0.0336689
2632.20	56.13	0.0334427
2636.30	56.06	0.0332978
2640.40	56.00	0.0331796
2644.50	55.93	0.0330364
2648.60	55.86	0.0329237
2652.70	55.79	0.0328348
2656.80	55.72	0.0327547
2660.90	55.65	0.0326447
2665.00	55.59	0.0325286
2669.10	55.52	0.0324109
2673.20	55.45	0.0323112
2677.30	55.38	0.0322657
2681.40	55.31	0.0321583
2685.50	55.24	0.0320827
2689.60	55.18	0.0320043
2693.70	55.11	0.0319100
2697.80	55.04	0.0318254
2701.90	54.97	0.0317896
2706.00	54.90	0.0317350
2710.10	54.83	0.0316668
2714.20	54.76	0.0316167
2718.30	54.70	0.0315675
2722.40	54.63	0.0315042
2726.50	54.56	0.0314339
2730.60	54.49	0.0313602
2734.70	54.42	0.0313237
2738.80	54.35	0.0312649
2742.90	54.29	0.0312287
2747.00	54.22	0.0311789
2751.10	54.15	0.0311232
2755.20	54.08	0.0310744
2759.30	54.01	0.0310099
2763.40	53.94	0.0309941
2767.50	53.88	0.0309447
2771.60	53.81	0.0309327
2775.70	53.74	0.0309223
2779.80	53.67	0.0308600
2783.90	53.60	0.0307486
2788.00	53.53	0.0307339
2792.10	53.47	0.0306605
2796.20	53.40	0.0306400
2800.30	53.33	0.0306010
2804.40	53.26	0.0305726
2808.50	53.19	0.0305459
2812.60	53.12	0.0304973
2816.70	53.06	0.0304555
2820.80	52.99	0.0304430
2824.90	52.92	0.0303955
2829.00	52.85	0.0303739
2833.10	52.78	0.0303028
2837.20	52.71	0.0302678
2841.30	52.65	0.0302275
2845.40	52.58	0.0302081
2849.50	52.51	0.0302111
2853.60	52.44	0.0301796
2857.70	52.37	0.0301544
2861.80	52.30	0.0301339
2865.90	52.24	0.0300739
2870.00	52.17	0.0300563
2874.10	52.10	0.0300395
2878.20	52.03	0.0300243
2882.30	51.96	0.0299804
2886.40	51.89	0.0299311
2890.50	51.83	0.0298948
2894.60	51.76	0.0299033
2898.70	51.69	0.0298573
2902.80	51.62	0.0298368
2906.90	51.55	0.0297912
2911.00	51.49	0.0297743
2915.10	51.42	0.0297425
2919.20	51.35	0.0296920
2923.30	51.28	0.0296648
2927.40	51.21	0.0296482
2931.50	51.14	0.0296341
2935.60	51.07	0.0296602
2939.70	51.01	0.0296563
2943.80	50.94	0.0295670
2947.90	50.87	0.0295135
2952.00	50.80	0.0295208
2956.10	50.73	0.0295056
2960.20	50.66	0.0294342
2964.30	50.60	0.0294285
2968.40	50.53	0.0293980
2972.50	50.46	0.0293938
2976.60	50.39	0.0293575
2980.70	50.32	0.0293283
2984.80	50.25	0.0293006
2988.90	50.19	0.0292629
2993.00	50.12	0.0292431
2997.10	50.05	0.0292020
3001.20	49.98	0.0291815
3005.30	49.91	0.0291549
3009.40	49.84	0.0291266
3013.50	49.78	0.0291364
3017.60	49.71	0.0290942
3021.70	49.64	0.0290730
3025.80	49.57	0.0290189
3029.90	49.50	0.0289958
3034.00	49.43	0.0289609
3038.10	49.37	0.0289584
3042.20	49.30	0.0289422
3046.30	49.23	0.0289307
3050.40	49.16	0.0289507
3054.50	49.09	0.0289280
3058.60	49.02	0.0289295
3062.70	48.96	0.0289210
3066.80	48.89	0.0288536
3070.90	48.82	0.0288416
3075.00	48.75	0.0288002
3079.10	48.68	0.0287926
3083.20	48.61	0.0287832
3087.30	48.54	0.0287854
3091.40	48.48	0.0287563
3095.50	48.41	0.0287234
3099.60	48.34	0.0286924
3103.70	48.27	0.0286859
3107.80	48.20	0.0286577
3111.90	48.14	0.0286320
3116.00	48.07	0.0285762
3120.10	48.00	0.0285614
3124.20	47.93	0.0285191
3128.30	47.86	0.0285145
3132.40	47.79	0.0285217
3136.50	47.73	0.0285440
3140.60	47.66	0.0285530
3144.70	47.59	0.0285618
3148.80	47.52	0.0285423
3152.90	47.45	0.0285295
3157.00	47.39	0.0285627
3161.10	47.32	0.0285590
3165.20	47.25	0.0285279
3169.30	47.18	0.0285099
3173.40	47.11	0.0284699
3177.50	47.04	0.0284414
3181.60	46.97	0.0283844
3185.70	46.91	0.0283180
3189.80	46.84	0.0282726
3193.90	46.77	0.0282664
3198.00	46.70	0.0282532
3202.10	46.63	0.0282470
3206.20	46.56	0.0282339
3210.30	46.50	0.0282134
3214.40	46.43	0.0282261
3218.50	46.36	0.0282136
3222.60	46.29	0.0282783
3226.70	46.22	0.0282289
3230.80	46.15	0.0282323
3234.90	46.09	0.0282456
3239.00	46.02	0.0282369
3243.10	45.95	0.0282384
3247.20	45.88	0.0282097
3251.30	45.81	0.0282112
3255.40	45.74	0.0281673
3259.50	45.68	0.0281555
3263.60	45.61	0.0281090
3267.70	45.54	0.0280662
3271.80	45.47	0.0280433
3275.90	45.40	0.0280494
3280.00	45.33	0.0280138
3284.10	45.27	0.0280035
3288.20	45.20	0.0279582
3292.30	45.13	0.0279354
3296.40	45.06	0.0279200
3300.50	44.99	0.0279130
3304.60	44.93	0.0279095
3308.70	44.86	0.0278714
3312.80	44.79	0.0278129
3316.90	44.72	0.0278196
3321.00	44.65	0.0278097
3325.10	44.58	0.0278335
3329.20	44.51	0.0278318
3333.30	44.45	0.0278373
3337.40	44.38	0.0278316
3341.50	44.31	0.0278460
3345.60	44.24	0.0278030
3349.70	44.17	0.0277675
3353.80	44.10	0.0277643
3357.90	44.04	0.0277468
3362.00	43.97	0.0277436
3366.10	43.90	0.0277193
3370.20	43.83	0.0277147
3374.30	43.76	0.0276812
3378.40	43.69	0.0276700
3382.50	43.62	0.0276607
3386.60	43.56	0.0276311
3390.70	43.49	0.0276358
3394.80	43.42	0.0276599
3398.90	43.35	0.0275956
3403.00	43.28	0.0275765
3407.10	43.21	0.0275562
3411.20	43.15	0.0275577
3415.30	43.08	0.0274967
3419.40	43.01	0.0275103
3423.50	42.94	0.0274520
3427.60	42.87	0.0274876
3431.70	42.81	0.0274833
3435.80	42.74	0.0274560
3439.90	42.67	0.0274499
3444.00	42.60	0.0274410
3448.10	42.53	0.0274354
3452.20	42.46	0.0273917
3456.30	42.40	0.0273794
3460.40	42.33	0.0273690
3464.50	42.26	0.0273767
3468.60	42.19	0.0273713
3472.70	42.12	0.0274011
3476.80	42.05	0.0273568
3480.90	41.99	0.0273220
3485.00	41.92	0.0272954
3489.10	41.85	0.0272751
3493.20	41.78	0.0272702
3497.30	41.71	0.0272439
3501.40	41.64	0.0272476
3505.50	41.58	0.0272456
3509.60	41.51	0.0272248
3513.70	41.44	0.0271887
3517.80	41.37	0.0271615
3521.90	41.30	0.0271354
3526.00	41.24	0.0271408
3530.10	41.17	0.0271407
3534.20	41.10	0.0270915
3538.30	41.03	0.0271085
3542.40	40.96	0.0270923
3546.50	40.89	0.0271158
3550.60	40.83	0.0271018
3554.70	40.76	0.0270680
3558.80	40.69	0.0270958
3562.90	40.62	0.0270991
3567.00	40.55	0.0270880
3571.10	40.48	0.0270493
3575.20	40.41	0.0270330
3579.30	40.35	0.0269971
3583.40	40.28	0.0270044
3587.50	40.21	0.0269920
3591.60	40.14	0.0269431
3595.70	40.07	0.0269416
3599.80	40.00	0.0269306
3603.90	39.94	0.0269500
3608.00	39.87	0.0269415
3612.10	39.80	0.0269159
3616.20	39.73	0.0268959
3620.30	39.66	0.0268692
3624.40	39.59	0.0268204
3628.50	39.53	0.0268207
3632.60	39.46	0.0268263
3636.70	39.39	0.0268270
3640.80	39.32	0.0268336
3644.90	39.25	0.0268043
3649.00	39.19	0.0267898
3653.10	39.12	0.0267776
3657.20	39.05	0.0267937
3661.30	38.98	0.0267921
3665.40	38.91	0.0267788
3669.50	38.84	0.0267622
3673.60	38.77	0.0267304
3677.70	38.71	0.0267376
3681.80	38.64	0.0267063
3685.90	38.57	0.0266961
3690.00	38.50	0.0266791
3694.10	38.43	0.0267010
3698.20	38.36	0.0266800
3702.30	38.29	0.0266508
3706.40	38.23	0.0266453
3710.50	38.16	0.0266110
3714.60	38.09	0.0265914
3718.70	38.02	0.0265999
3722.80	37.95	0.0265969
3726.90	37.89	0.0265553
3731.00	37.82	0.0265321
3735.10	37.75	0.0265206
3739.20	37.68	0.0264816
3743.30	37.61	0.0264736
3747.40	37.54	0.0264648
3751.50	37.48	0.0264686
3755.60	37.41	0.0264631
3759.70	37.34	0.0264457
3763.80	37.27	0.0264525
3767.90	37.20	0.0264474
3772.00	37.13	0.0264415
3776.10	37.07	0.0264347
3780.20	37.00	0.0264335
3784.30	36.93	0.0264102
3788.40	36.86	0.0263632
3792.50	36.79	0.0263833
3796.60	36.72	0.0263654
3800.70	36.66	0.0263870
3804.80	36.59	0.0263598
3808.90	36.52	0.0263468
3813.00	36.45	0.0263497
3817.10	36.38	0.0263737
3821.20	36.31	0.0263421
3825.30	36.25	0.0263264
3829.40	36.18	0.0262861
3833.50	36.11	0.0262532
3837.60	36.04	0.0262857
3841.70	35.97	0.0262433
3845.80	35.90	0.0262216
3849.90	35.84	0.0261990
3854.00	35.77	0.0262076
3858.10	35.70	0.0261850
3862.20	35.63	0.0261573
3866.30	35.56	0.0261401
3870.40	35.49	0.0261193
3874.50	35.43	0.0261080
3878.60	35.36	0.0261236
3882.70	35.29	0.0261004
3886.80	35.22	0.0261121
3890.90	35.15	0.0261291
3895.00	35.08	0.0260836
3899.10	35.02	0.0260787
3903.20	34.95	0.0260834
3907.30	34.88	0.0260582
3911.40	34.81	0.0260440
3915.50	34.74	0.0260278
3919.60	34.67	0.0260309
3923.70	34.61	0.0260287
3927.80	34.54	0.0260076
3931.90	34.47	0.0259854
3936.00	34.40	0.0259545
3940.10	34.33	0.0259698
3944.20	34.26	0.0259722
3948.30	34.20	0.0259614
3952.40	34.13	0.0259438
3956.50	34.06	0.0259495
3960.60	33.99	0.0259127
3964.70	33.92	0.0259158
3968.80	33.85	0.0258801
3972.90	33.79	0.0258963
3977.00	33.72	0.0258577
3981.10	33.65	0.0258458
3985.20	33.58	0.0258163
3989.30	33.51	0.0258466
3993.40	33.44	0.0258272
3997.50	33.38	0.0258262
4001.60	33.31	0.0258010
4005.70	33.24	0.0258058
4009.80	33.17	0.0257928
4013.90	33.10	0.0258137
4018.00	33.04	0.0257915
4022.10	32.97	0.0257641
4026.20	32.90	0.0257457
4030.30	32.83	0.0257356
4034.40	32.76	0.0257182
4038.50	32.69	0.0256833
4042.60	32.62	0.0256671
4046.70	32.56	0.0256730
4050.80	32.49	0.0256544
4054.90	32.42	0.0256283
4059.00	32.35	0.0255973
4063.10	32.28	0.0256168
4067.20	32.21	0.0255976
4071.30	32.15	0.0255958
4075.40	32.08	0.0255900
4079.50	32.01	0.0255673
4083.60	31.94	0.0255590
4087.70	31.87	0.0255491
4091.80	31.80	0.0255747
4095.90	31.74	0.0255312
4100.00	31.67	0.0255179
4104.10	31.60	0.0255111
4108.20	31.53	0.0254933
4112.30	31.46	0.0254579
4116.40	31.40	0.0254572
4120.50	31.33	0.0254683
4124.60	31.26	0.0254711
4128.70	31.19	0.0254708
4132.80	31.12	0.0254692
4136.90	31.05	0.0254439
4141.00	30.98	0.0254383
4145.10	30.92	0.0254440
4149.20	30.85	0.0254135
4153.30	30.78	0.0254286
4157.40	30.71	0.0254208
4161.50	30.64	0.0253696
4165.60	30.57	0.0253446
4169.70	30.51	0.0253450
4173.80	30.44	0.0253222
4177.90	30.37	0.0252917
4182.00	30.30	0.0252561
4186.10	30.23	0.0252423
4190.20	30.16	0.0252461
4194.30	30.10	0.0252524
4198.40	30.03	0.0252620
4202.50	29.96	0.0252502
4206.60	29.89	0.0252334
4210.70	29.82	0.0252272
4214.80	29.75	0.0251771
4218.90	29.69	0.0252144
4223.00	29.62	0.0251917
4227.10	29.55	0.0252252
4231.20	29.48	0.0252066
4235.30	29.41	0.0251977
4239.40	29.34	0.0251686
4243.50	29.28	0.0251370
4247.60	29.21	0.0251226
4251.70	29.14	0.0251236
4255.80	29.07	0.0250901
4259.90	29.00	0.0250867
4264.00	28.94	0.0250852
4268.10	28.87	0.0250766
4272.20	28.80	0.0250616
4276.30	28.73	0.0250665
4280.40	28.66	0.0250687
4284.50	28.59	0.0250944
4288.60	28.52	0.0250809
4292.70	28.46	0.0250842
4296.80	28.39	0.0250417
4300.90	28.32	0.0250864
4305.00	28.25	0.0250346
4309.10	28.18	0.0249960
4313.20	28.11	0.0249983
4317.30	28.05	0.0249625
4321.40	27.98	0.0249399
4325.50	27.91	0.0249197
4329.60	27.84	0.0249309
4333.70	27.77	0.0249160
4337.80	27.70	0.0249003
4341.90	27.64	0.0248866
4346.00	27.57	0.0248648
4350.10	27.50	0.0248859
4354.20	27.43	0.0248800
4358.30	27.36	0.0248838
4362.40	27.29	0.0248421
4366.50	27.23	0.0248055
4370.60	27.16	0.0248426
4374.70	27.09	0.0248382
4378.80	27.02	0.0248550
4382.90	26.95	0.0248474
4387.00	26.88	0.0248486
4391.10	26.82	0.0248317
4395.20	26.75	0.0248292
4399.30	26.68	0.0247800
4403.40	26.61	0.0248200
4407.50	26.54	0.0247895
4411.60	26.47	0.0247563
4415.70	26.41	0.0247609
4419.80	26.34	0.0247537
4423.90	26.27	0.0247407
4428.00	26.20	0.0247535
4432.10	26.13	0.0246975
4436.20	26.06	0.0246897
4440.30	26.00	0.0246958
4444.40	25.93	0.0246877
4448.50	25.86	0.0247024
4452.60	25.79	0.0246985
4456.70	25.72	0.0247086
4460.80	25.65	0.0247040
4464.90	25.59	0.0246766
4469.00	25.52	0.0246729
4473.10	25.45	0.0246437
4477.20	25.38	0.0246379
4481.30	25.31	0.0246282
4485.40	25.24	0.0245980
4489.50	25.18	0.0246251
4493.60	25.11	0.0246425
4497.70	25.04	0.0246336
4501.80	24.97	0.0246135
4505.90	24.90	0.0246039
4510.00	24.83	0.0245958
4514.10	24.77	0.0245990
4518.20	24.70	0.0245695
4522.30	24.63	0.0245500
4526.40	24.56	0.0245618
4530.50	24.49	0.0245521
4534.60	24.42	0.0245322
4538.70	24.36	0.0244924
4542.80	24.29	0.0244694
4546.90	24.22	0.0245025
4551.00	24.15	0.0244679
4555.10	24.08	0.0244607
4559.20	24.01	0.0244123
4563.30	23.95	0.0243875
4567.40	23.88	0.0243648
4571.50	23.81	0.0243550
4575.60	23.74	0.0243225
4579.70	23.67	0.0243264
4583.80	23.61	0.0243136
4587.90	23.54	0.0242832
4592.00	23.47	0.0243127
4596.10	23.40	0.0242935
4600.20	23.33	0.0242864
4604.30	23.28	8.49638e-3
4608.40	23.28	0.0326519
4612.50	23.39	0.366224
4616.60	23.43	0.614245
4620.70	23.41	0.729663
4624.80	23.36	0.779673
4628.90	23.32	0.811221
4633.00	23.28	0.859284
4637.10	23.25	0.909568
4641.20	23.23	0.985301
4645.30	23.21	1.07704
4649.40	23.21	1.17432
4653.50	23.21	1.31425
4657.60	23.16	1.42461
4661.70	22.99	1.38464
4665.80	22.67	0.972646
4669.90	22.41	0.561349
4674.00	22.24	0.327227
4678.10	22.11	0.196312
4682.20	22.01	0.123848
4686.30	21.92	0.0828978
4690.40	21.84	0.0606874
4694.50	21.77	0.0475026
4698.60	21.70	0.0412852
4702.70	21.63	0.0374703
4706.80	21.56	0.0350551
4710.90	21.49	0.0339301
4715.00	21.42	0.0331116
4719.10	21.35	0.0323200
4723.20	21.28	0.0315486
4727.30	21.22	0.0308549
4731.40	21.15	0.0302593
4735.50	21.08	0.0297073
4739.60	21.01	0.0292275
4743.70	20.94	0.0287813
4747.80	20.87	0.0283989
4751.90	20.80	0.0280080
4756.00	20.74	0.0276900
4760.10	20.67	0.0273893
4764.20	20.60	0.0271366
4768.30	20.53	0.0268902
4772.40	20.46	0.0266727
4776.50	20.39	0.0264573
4780.60	20.33	0.0262768
4784.70	20.26	0.0261286
4788.80	20.19	0.0259750
4792.90	20.12	0.0257970
4797.00	20.05	0.0256445
4801.10	19.98	0.0254881
4805.20	19.92	0.0253306
4809.30	19.85	0.0251952
4813.40	19.78	0.0250478
4817.50	19.71	0.0249316
4821.60	19.64	0.0248082
4825.70	19.57	0.0247044
4829.80	19.50	0.0245654
4833.90	19.44	0.0244407
4838.00	19.37	0.0243028
4842.10	19.30	0.0242017
4846.20	19.23	0.0241188
4850.30	19.16	0.0239988
4854.40	19.09	0.0239395
4858.50	19.03	0.0238592
4862.60	18.96	0.0237559
4866.70	18.89	0.0236947
4870.80	18.82	0.0236215
4874.90	18.75	0.0235450
4879.00	18.68	0.0234382
4883.10	18.62	0.0233434
4887.20	18.55	0.0232713
4891.30	18.48	0.0231788
4895.40	18.41	0.0230913
4899.50	18.34	0.0230250
4903.60	18.27	0.0229538
4907.70	18.21	0.0228661
4911.80	18.14	0.0227849
4915.90	18.07	0.0226968
4920.00	18.00	0.0226519
4924.10	17.93	0.0225813
4928.20	17.86	0.0224770
4932.30	17.80	0.0223937
4936.40	17.73	0.0223360
4940.50	17.66	0.0222494
4944.60	17.59	0.0221552
4948.70	17.52	0.0220998
4952.80	17.45	0.0220017
4956.90	17.39	0.0219295
4961.00	17.32	0.0218476
4965.10	17.25	0.0217775
4969.20	17.18	0.0217210
4973.30	17.11	0.0216825
4977.40	17.04	0.0216690
4981.50	16.98	0.0215835
4985.60	16.91	0.0215404
4989.70	16.84	0.0214893
4993.80	16.77	0.0214580
4997.90	16.70	0.0214139
5002.00	16.63	0.0213410
5006.10	16.57	0.0213067
5010.20	16.50	0.0212613
5014.30	16.43	0.0211998
5018.40	16.36	0.0211349
5022.50	16.29	0.0210975
5026.60	16.22	0.0210448
5030.70	16.16	0.0209890
5034.80	16.09	0.0209195
5038.90	16.02	0.0208948
5043.00	15.95	0.0208660
5047.10	15.88	0.0208673
5051.20	15.81	0.0208086
5055.30	15.74	0.0207702
5059.40	15.68	0.0207434
5063.50	15.61	0.0206879
5067.60	15.54	0.0206453
5071.70	15.47	0.0205834
5075.80	15.40	0.0205511
5079.90	15.33	0.0204767
5084.00	15.27	0.0204618
5088.10	15.20	0.0204065
5092.20	15.13	0.0203529
5096.30	15.06	0.0203134
5100.40	14.99	0.0202854
5104.50	14.92	0.0202481
5108.60	14.86	0.0202329
5112.70	14.79	0.0201670
5116.80	14.72	0.0201262
5120.90	14.65	0.0200949
5125.00	14.58	0.0200515
5129.10	14.51	0.0200196
5133.20	14.45	0.0199681
5137.30	14.38	0.0199538
5141.40	14.31	0.0198841
5145.50	14.24	0.0198620
5149.60	14.17	0.0198428
5153.70	14.10	0.0198149
5157.80	14.04	0.0197435
5161.90	13.97	0.0196811
5166.00	13.90	0.0196345
5170.10	13.83	0.0195855
5174.20	13.76	0.0195842
5178.30	13.69	0.0195308
5182.40	13.63	0.0195189
5186.50	13.56	0.0194892
5190.60	13.49	0.0194691
5194.70	13.42	0.0194362
5198.80	13.35	0.0193953
5202.90	13.29	0.0193590
5207.00	13.22	0.0193326
5211.10	13.15	0.0193138
5215.20	13.08	0.0192443
5219.30	13.01	0.0192435
5223.40	12.94	0.0191776
5227.50	12.88	0.0191168
5231.60	12.81	0.0191008
5235.70	12.74	0.0190653
5239.80	12.67	0.0190345
5243.90	12.60	0.0190317
5248.00	12.53	0.0190328
5252.10	12.46	0.0190274
5256.20	12.40	0.0189840
5260.30	12.33	0.0189429
5264.40	12.26	0.0189205
5268.50	12.19	0.0189022
5272.60	12.12	0.0188460
5276.70	12.05	0.0188017
5280.80	11.99	0.0187978
5284.90	11.92	0.0187537
5289.00	11.85	0.0187445
5293.10	11.78	0.0187139
5297.20	11.71	0.0186756
5301.30	11.64	0.0186308
5305.40	11.58	0.0185888
5309.50	11.51	0.0185709
5313.60	11.44	0.0185344
5317.70	11.37	0.0184937
5321.80	11.30	0.0184502
5325.90	11.23	0.0184343
5330.00	11.17	0.0184098
5334.10	11.10	0.0183968
5338.20	11.03	0.0183747
5342.30	10.96	0.0183668
5346.40	10.89	0.0183525
5350.50	10.82	0.0183547
5354.60	10.75	0.0183055
5358.70	10.69	0.0182703
5362.80	10.62	0.0182237
5366.90	10.55	0.0182039
5371.00	10.48	0.0181931
5375.10	10.41	0.0181760
5379.20	10.34	0.0181339
5383.30	10.28	0.0180869
5387.40	10.21	0.0180585
5391.50	10.14	0.0180163
5395.60	10.07	0.0179990
5399.70	10.00	0.0179586
5403.80	9.94	0.0179278
5407.90	9.87	0.0179226
5412.00	9.80	0.0178892
5416.10	9.73	0.0178453
5420.20	9.66	0.0178210
5424.30	9.59	0.0177998
5428.40	9.53	0.0177534
5432.50	9.46	0.0177315
5436.60	9.39	0.0176786
5440.70	9.32	0.0176541
5444.80	9.25	0.0176492
5448.90	9.18	0.0176402
5453.00	9.12	0.0176330
5457.10	9.05	0.0176209
5461.20	8.98	0.0176079
5465.30	8.91	0.0175955
5469.40	8.84	0.0175758
5473.50	8.77	0.0175542
5477.60	8.71	0.0175412
5481.70	8.64	0.0175142
5485.80	8.57	0.0175190
5489.90	8.50	0.0174817
5494.00	8.43	0.0174784
5498.10	8.36	0.0174491
5502.20	8.29	0.0174151
5506.30	8.23	0.0173785
5510.40	8.16	0.0173524
5514.50	8.09	0.0173404
5518.60	8.02	0.0172849
5522.70	7.95	0.0172643
5526.80	7.88	0.0172260
5530.90	7.82	0.0172271
5535.00	7.75	0.0171761
5539.10	7.68	0.0171592
5543.20	7.61	0.0171139
5547.30	7.54	0.0170827
5551.40	7.47	0.0170735
5555.50	7.41	0.0170416
5559.60	7.34	0.0170482
5563.70	7.27	0.0170198
5567.80	7.20	0.0169926
5571.90	7.13	0.0169954
5576.00	7.07	0.0169987
5580.10	7.00	0.0169741
5584.20	6.93	0.0169507
5588.30	6.86	0.0168981
5592.40	6.79	0.0168710
5596.50	6.72	0.0168425
5600.60	6.66	0.0168333
5604.70	6.59	0.0167878
5608.80	6.52	0.0167688
5612.90	6.45	0.0167551
5617.00	6.38	0.0167541
5621.10	6.31	0.0167717
5625.20	6.25	0.0167695
5629.30	6.18	0.0167618
5633.40	6.11	0.0167521
5637.50	6.04	0.0167583
5641.60	5.97	0.0167492
5645.70	5.90	0.0167108
5649.80	5.84	0.0166838
5653.90	5.77	0.0166807
5658.00	5.70	0.0166432
5662.10	5.63	0.0166118
5666.20	5.56	0.0165900
5670.30	5.49	0.0165541
5674.40	5.43	0.0165351
5678.50	5.36	0.0164979
5682.60	5.29	0.0164606
5686.70	5.22	0.0164622
5690.80	5.15	0.0164357
5694.90	5.08	0.0164320
5699.00	5.02	0.0164432
5703.10	4.95	0.0164209
5707.20	4.88	0.0164102
5711.30	4.81	0.0164303
5715.40	4.74	0.0164166
5719.50	4.67	0.0163982
5723.60	4.60	0.0163780
5727.70	4.54	0.0163530
5731.80	4.47	0.0163352
5735.90	4.40	0.0163179
5740.00	4.33	0.0163124
5744.10	4.26	0.0162936
5748.20	4.19	0.0163008
5752.30	4.13	0.0162700
5756.40	4.06	0.0162712
5760.50	3.99	0.0162281
5764.60	3.92	0.0162153
5768.70	3.86	0.0161808
5772.80	3.79	0.0161511
5776.90	3.72	0.0161065
5781.00	3.65	0.0160930
5785.10	3.58	0.0161037
5789.20	3.51	0.0160870
5793.30	3.44	0.0160897
5797.40	3.37	0.0161042
5801.50	3.31	0.0161061
5805.60	3.24	0.0160791
5809.70	3.17	0.0160500
5813.80	3.10	0.0160491
5817.90	3.03	0.0160598
5822.00	2.97	0.0160365
5826.10	2.90	0.0160540
5830.20	2.83	0.0160367
5834.30	2.76	0.0160535
5838.40	2.69	0.0160218
5842.50	2.62	0.0160251
5846.60	2.55	0.0160420
5850.70	2.49	0.0160257
5854.80	2.42	0.0160234
5858.90	2.35	0.0160115
5863.00	2.28	0.0160067
5867.10	2.21	0.0159840
5871.20	2.14	0.0159759
5875.30	2.08	0.0159562
5879.40	2.01	0.0159269
5883.50	1.94	0.0159125
5887.60	1.87	0.0158833
5891.70	1.80	0.0158680
5895.80	1.73	0.0158474
5899.90	1.67	0.0158551
5904.00	1.60	0.0158151
5908.10	1.53	0.0157848
5912.20	1.46	0.0157782
5916.30	1.39	0.0157959
5920.40	1.33	0.0157637
5924.50	1.26	0.0157518
5928.60	1.19	0.0157538
5932.70	1.12	0.0157178
5936.80	1.05	0.0157170
5940.90	0.98	0.0156999
5945.00	0.92	0.0157131
5949.10	0.85	0.0156919
5953.20	0.78	0.0156779
5957.30	0.71	0.0156558
5961.40	0.64	0.0156323
5965.50	0.58	0.0156139
5969.60	0.51	0.0156002
5973.70	0.44	0.0156081
5977.80	0.37	0.0156117
5981.90	0.30	0.0156242
5986.00	0.23	0.0156121
5990.10	0.16	0.0155983
5994.20	0.10	0.0156125
5998.30	0.03	0.0156235
6000.00	0.00	0.0156131