File: Differential scanning calorimetry/8OCB Squalane/8OCB SqA wt fraction 094.txt
Filename	8OCBSA094
Instrument name	DSC2A-00101 (192.168.10.4)
Operator	Yuma
rundate	5/28/2021
Sample name	8OCBSA094
proceduresegments	Data Off ; Equilibrate 150.00 °C; Isothermal 10.0 min; Equilibrate 100.00 °C; Isothermal 5.0 min; Data On ; Ramp 1.00 °C/min to 0.00 °C; Ramp 5.00 °C/min to 150.00 °C; Data Off ; Isothermal 10.0 min; Modulate Temperature 1.00 °C for 60.0 s; Equilibrate 100.00 °C; Isothermal 10.0 min; Data On ; Ramp 1.00 °C/min to 0.00 °C; Ramp 3.00 °C/min to 100.00 °C; Jump 30.00 °C
[step]
Ramp 1.00 °C/min to 0.00 °C
Time	Temperature	Heat Flow (Normalized)
s	°C	W/g
0.00000	99.84	1.26150e-3
4.00000	99.83	1.40462e-3
8.00000	99.81	-5.05319e-4
12.0000	99.76	1.31717e-3
16.0000	99.71	0.0116148
20.0000	99.65	0.0183956
24.0000	99.59	0.0228829
28.0000	99.52	0.0258544
32.0000	99.46	0.0273497
36.0000	99.39	0.0283094
40.0000	99.33	0.0290197
44.0000	99.26	0.0295885
48.0000	99.19	0.0301684
52.0000	99.13	0.0306465
56.0000	99.06	0.0309950
60.0000	99.00	0.0312656
64.0000	98.93	0.0314880
68.0000	98.86	0.0316399
72.0000	98.80	0.0317828
76.0000	98.73	0.0318764
80.0000	98.66	0.0319384
84.0000	98.60	0.0319891
88.0000	98.53	0.0320431
92.0000	98.46	0.0320779
96.0000	98.40	0.0320711
100.000	98.33	0.0320927
104.000	98.26	0.0321363
108.000	98.20	0.0321786
112.000	98.13	0.0321548
116.000	98.06	0.0321995
120.000	98.00	0.0322252
124.000	97.93	0.0322147
128.000	97.86	0.0321843
132.000	97.80	0.0321727
136.000	97.73	0.0321542
140.000	97.66	0.0321037
144.000	97.60	0.0321042
148.000	97.53	0.0320784
152.000	97.46	0.0320432
156.000	97.40	0.0320347
160.000	97.33	0.0320938
164.000	97.26	0.0320681
168.000	97.20	0.0320644
172.000	97.13	0.0320988
176.000	97.06	0.0322048
180.000	97.00	0.0322493
184.000	96.93	0.0322008
188.000	96.86	0.0321314
192.000	96.80	0.0320575
196.000	96.73	0.0320082
200.000	96.66	0.0319828
204.000	96.60	0.0319429
208.000	96.53	0.0319161
212.000	96.46	0.0319091
216.000	96.40	0.0318864
220.000	96.33	0.0318730
224.000	96.26	0.0318787
228.000	96.20	0.0318753
232.000	96.13	0.0318760
236.000	96.07	0.0318784
240.000	96.00	0.0319085
244.000	95.93	0.0318760
248.000	95.86	0.0318738
252.000	95.80	0.0318644
256.000	95.73	0.0318434
260.000	95.66	0.0318568
264.000	95.60	0.0318742
268.000	95.53	0.0318722
272.000	95.47	0.0318478
276.000	95.40	0.0318455
280.000	95.33	0.0318095
284.000	95.26	0.0317714
288.000	95.20	0.0317716
292.000	95.13	0.0317710
296.000	95.06	0.0317859
300.000	95.00	0.0317998
304.000	94.93	0.0317984
308.000	94.87	0.0318108
312.000	94.80	0.0318325
316.000	94.73	0.0318161
320.000	94.67	0.0317811
324.000	94.60	0.0317983
328.000	94.53	0.0317781
332.000	94.47	0.0317758
336.000	94.40	0.0317826
340.000	94.33	0.0317777
344.000	94.27	0.0317874
348.000	94.20	0.0317638
352.000	94.13	0.0317985
356.000	94.07	0.0317798
360.000	94.00	0.0317926
364.000	93.93	0.0317628
368.000	93.87	0.0317333
372.000	93.80	0.0317191
376.000	93.73	0.0317152
380.000	93.67	0.0317265
384.000	93.60	0.0317224
388.000	93.53	0.0316934
392.000	93.47	0.0317152
396.000	93.40	0.0316875
400.000	93.33	0.0316846
404.000	93.27	0.0316901
408.000	93.20	0.0316936
412.000	93.13	0.0317003
416.000	93.07	0.0316767
420.000	93.00	0.0317115
424.000	92.93	0.0317352
428.000	92.87	0.0317037
432.000	92.80	0.0316955
436.000	92.73	0.0316919
440.000	92.67	0.0316813
444.000	92.60	0.0316843
448.000	92.53	0.0316947
452.000	92.47	0.0316781
456.000	92.40	0.0316271
460.000	92.33	0.0316392
464.000	92.26	0.0316223
468.000	92.20	0.0316132
472.000	92.13	0.0315977
476.000	92.07	0.0316016
480.000	92.00	0.0315939
484.000	91.93	0.0315882
488.000	91.87	0.0315934
492.000	91.80	0.0315544
496.000	91.73	0.0315370
500.000	91.67	0.0315176
504.000	91.60	0.0315218
508.000	91.53	0.0314753
512.000	91.47	0.0314985
516.000	91.40	0.0315027
520.000	91.33	0.0314884
524.000	91.27	0.0315048
528.000	91.20	0.0315194
532.000	91.13	0.0315326
536.000	91.07	0.0315611
540.000	91.00	0.0315872
544.000	90.93	0.0315438
548.000	90.87	0.0315407
552.000	90.80	0.0315476
556.000	90.73	0.0315422
560.000	90.67	0.0315287
564.000	90.60	0.0315314
568.000	90.53	0.0315296
572.000	90.47	0.0315331
576.000	90.40	0.0315348
580.000	90.33	0.0315496
584.000	90.27	0.0315183
588.000	90.20	0.0314984
592.000	90.13	0.0314827
596.000	90.07	0.0314747
600.000	90.00	0.0314981
604.000	89.93	0.0315095
608.000	89.87	0.0314749
612.000	89.80	0.0314386
616.000	89.73	0.0314149
620.000	89.67	0.0313785
624.000	89.60	0.0313539
628.000	89.53	0.0313875
632.000	89.47	0.0313896
636.000	89.40	0.0313992
640.000	89.33	0.0314100
644.000	89.27	0.0314187
648.000	89.20	0.0314205
652.000	89.13	0.0314052
656.000	89.07	0.0313932
660.000	89.00	0.0313965
664.000	88.93	0.0314034
668.000	88.87	0.0314196
672.000	88.80	0.0314403
676.000	88.73	0.0313996
680.000	88.67	0.0313877
684.000	88.60	0.0313953
688.000	88.53	0.0313907
692.000	88.47	0.0313919
696.000	88.40	0.0313734
700.000	88.33	0.0313766
704.000	88.27	0.0313887
708.000	88.20	0.0313820
712.000	88.13	0.0313692
716.000	88.07	0.0313349
720.000	88.00	0.0313071
724.000	87.93	0.0313023
728.000	87.87	0.0312810
732.000	87.80	0.0312481
736.000	87.73	0.0312384
740.000	87.67	0.0312185
744.000	87.60	0.0312619
748.000	87.53	0.0312536
752.000	87.47	0.0312416
756.000	87.40	0.0312562
760.000	87.33	0.0312496
764.000	87.27	0.0312613
768.000	87.20	0.0312687
772.000	87.13	0.0312862
776.000	87.07	0.0313155
780.000	87.00	0.0313060
784.000	86.93	0.0313099
788.000	86.87	0.0312870
792.000	86.80	0.0312613
796.000	86.73	0.0312551
800.000	86.67	0.0312298
804.000	86.60	0.0312103
808.000	86.53	0.0312394
812.000	86.47	0.0312170
816.000	86.40	0.0312258
820.000	86.33	0.0312235
824.000	86.27	0.0312422
828.000	86.20	0.0312204
832.000	86.13	0.0311902
836.000	86.07	0.0311672
840.000	86.00	0.0311582
844.000	85.93	0.0311826
848.000	85.87	0.0312058
852.000	85.80	0.0311982
856.000	85.73	0.0312334
860.000	85.67	0.0312265
864.000	85.60	0.0312283
868.000	85.53	0.0312383
872.000	85.47	0.0312258
876.000	85.40	0.0312095
880.000	85.33	0.0312188
884.000	85.27	0.0312268
888.000	85.20	0.0312147
892.000	85.13	0.0312248
896.000	85.07	0.0312062
900.000	85.00	0.0312081
904.000	84.93	0.0312314
908.000	84.87	0.0312344
912.000	84.80	0.0312307
916.000	84.73	0.0311968
920.000	84.67	0.0311966
924.000	84.60	0.0311854
928.000	84.53	0.0311728
932.000	84.47	0.0311734
936.000	84.40	0.0311505
940.000	84.33	0.0311473
944.000	84.27	0.0311476
948.000	84.20	0.0311599
952.000	84.13	0.0311462
956.000	84.07	0.0311269
960.000	84.00	0.0311241
964.000	83.93	0.0311421
968.000	83.87	0.0311316
972.000	83.80	0.0311207
976.000	83.74	0.0311597
980.000	83.67	0.0311591
984.000	83.60	0.0311307
988.000	83.53	0.0311521
992.000	83.47	0.0311262
996.000	83.40	0.0310951
1000.00	83.33	0.0311240
1004.00	83.27	0.0311302
1008.00	83.20	0.0311556
1012.00	83.13	0.0311442
1016.00	83.07	0.0311146
1020.00	83.00	0.0311002
1024.00	82.93	0.0310719
1028.00	82.87	0.0310909
1032.00	82.80	0.0311040
1036.00	82.74	0.0311093
1040.00	82.67	0.0310994
1044.00	82.60	0.0310868
1048.00	82.53	0.0310844
1052.00	82.47	0.0310814
1056.00	82.40	0.0311030
1060.00	82.34	0.0311126
1064.00	82.27	0.0311156
1068.00	82.20	0.0311086
1072.00	82.14	0.0311046
1076.00	82.07	0.0310986
1080.00	82.00	0.0311013
1084.00	81.94	0.0311114
1088.00	81.87	0.0310963
1092.00	81.80	0.0311056
1096.00	81.73	0.0311280
1100.00	81.67	0.0311517
1104.00	81.60	0.0311413
1108.00	81.53	0.0311500
1112.00	81.47	0.0311396
1116.00	81.40	0.0311143
1120.00	81.33	0.0311002
1124.00	81.27	0.0311240
1128.00	81.20	0.0310951
1132.00	81.14	0.0310759
1136.00	81.07	0.0310668
1140.00	81.00	0.0310497
1144.00	80.94	0.0310339
1148.00	80.87	0.0310502
1152.00	80.80	0.0310629
1156.00	80.74	0.0310603
1160.00	80.67	0.0310727
1164.00	80.60	0.0310687
1168.00	80.54	0.0310523
1172.00	80.47	0.0310436
1176.00	80.40	0.0310682
1180.00	80.33	0.0310846
1184.00	80.27	0.0310852
1188.00	80.20	0.0310991
1192.00	80.14	0.0310927
1196.00	80.07	0.0310668
1200.00	80.00	0.0310642
1204.00	79.94	0.0310159
1208.00	79.87	0.0310170
1212.00	79.80	0.0310455
1216.00	79.73	0.0310501
1220.00	79.67	0.0310545
1224.00	79.60	0.0310386
1228.00	79.53	0.0310491
1232.00	79.47	0.0310306
1236.00	79.40	0.0310092
1240.00	79.34	0.0309963
1244.00	79.27	0.0309887
1248.00	79.20	0.0310002
1252.00	79.14	0.0310093
1256.00	79.07	0.0310054
1260.00	79.00	0.0310138
1264.00	78.94	0.0310131
1268.00	78.87	0.0310428
1272.00	78.80	0.0310470
1276.00	78.74	0.0310543
1280.00	78.67	0.0310502
1284.00	78.60	0.0310332
1288.00	78.54	0.0310618
1292.00	78.47	0.0310525
1296.00	78.40	0.0310620
1300.00	78.34	0.0310520
1304.00	78.27	0.0310649
1308.00	78.20	0.0310659
1312.00	78.14	0.0310586
1316.00	78.07	0.0310540
1320.00	78.00	0.0310634
1324.00	77.94	0.0310733
1328.00	77.87	0.0310659
1332.00	77.80	0.0310343
1336.00	77.74	0.0310705
1340.00	77.67	0.0310784
1344.00	77.60	0.0310595
1348.00	77.54	0.0310880
1352.00	77.47	0.0310751
1356.00	77.40	0.0310710
1360.00	77.34	0.0310694
1364.00	77.27	0.0310616
1368.00	77.20	0.0310460
1372.00	77.14	0.0310194
1376.00	77.07	0.0310177
1380.00	77.00	0.0310282
1384.00	76.94	0.0310397
1388.00	76.87	0.0310688
1392.00	76.80	0.0310976
1396.00	76.74	0.0310914
1400.00	76.67	0.0310794
1404.00	76.60	0.0310553
1408.00	76.54	0.0310339
1412.00	76.47	0.0310528
1416.00	76.40	0.0310569
1420.00	76.34	0.0310995
1424.00	76.27	0.0311071
1428.00	76.20	0.0311305
1432.00	76.14	0.0310976
1436.00	76.07	0.0310801
1440.00	76.00	0.0310769
1444.00	75.94	0.0310731
1448.00	75.87	0.0310903
1452.00	75.80	0.0310583
1456.00	75.74	0.0310695
1460.00	75.67	0.0310463
1464.00	75.60	0.0310507
1468.00	75.54	0.0310877
1472.00	75.47	0.0310821
1476.00	75.40	0.0311120
1480.00	75.34	0.0310964
1484.00	75.27	0.0311117
1488.00	75.20	0.0311176
1492.00	75.14	0.0311470
1496.00	75.07	0.0311550
1500.00	75.00	0.0312008
1504.00	74.94	0.0311866
1508.00	74.87	0.0311825
1512.00	74.80	0.0312145
1516.00	74.74	0.0312013
1520.00	74.67	0.0311796
1524.00	74.60	0.0311821
1528.00	74.54	0.0311701
1532.00	74.47	0.0311691
1536.00	74.40	0.0311655
1540.00	74.34	0.0311355
1544.00	74.27	0.0311461
1548.00	74.20	0.0311275
1552.00	74.14	0.0311503
1556.00	74.07	0.0311336
1560.00	74.00	0.0311555
1564.00	73.94	0.0311710
1568.00	73.87	0.0312004
1572.00	73.80	0.0311967
1576.00	73.74	0.0311932
1580.00	73.67	0.0312139
1584.00	73.60	0.0312288
1588.00	73.54	0.0312178
1592.00	73.47	0.0312082
1596.00	73.40	0.0312138
1600.00	73.34	0.0312326
1604.00	73.27	0.0312067
1608.00	73.20	0.0311872
1612.00	73.14	0.0312131
1616.00	73.07	0.0312218
1620.00	73.00	0.0312190
1624.00	72.94	0.0312292
1628.00	72.87	0.0312263
1632.00	72.80	0.0312302
1636.00	72.74	0.0312337
1640.00	72.67	0.0312481
1644.00	72.60	0.0312990
1648.00	72.54	0.0313069
1652.00	72.47	0.0313227
1656.00	72.40	0.0313344
1660.00	72.34	0.0313284
1664.00	72.27	0.0313272
1668.00	72.20	0.0313475
1672.00	72.14	0.0313386
1676.00	72.07	0.0313399
1680.00	72.00	0.0313468
1684.00	71.94	0.0313717
1688.00	71.87	0.0313836
1692.00	71.80	0.0313899
1696.00	71.74	0.0313629
1700.00	71.67	0.0313505
1704.00	71.60	0.0313405
1708.00	71.54	0.0313301
1712.00	71.47	0.0313694
1716.00	71.40	0.0314037
1720.00	71.34	0.0314194
1724.00	71.27	0.0314233
1728.00	71.21	0.0314293
1732.00	71.14	0.0314330
1736.00	71.07	0.0314366
1740.00	71.00	0.0314583
1744.00	70.94	0.0314735
1748.00	70.87	0.0314729
1752.00	70.81	0.0314859
1756.00	70.74	0.0314994
1760.00	70.67	0.0315242
1764.00	70.60	0.0315573
1768.00	70.54	0.0315754
1772.00	70.47	0.0316091
1776.00	70.40	0.0316315
1780.00	70.34	0.0316697
1784.00	70.27	0.0316545
1788.00	70.20	0.0316961
1792.00	70.14	0.0317232
1796.00	70.07	0.0317531
1800.00	70.00	0.0317234
1804.00	69.94	0.0317183
1808.00	69.87	0.0317252
1812.00	69.80	0.0316936
1816.00	69.74	0.0317154
1820.00	69.67	0.0317317
1824.00	69.61	0.0317599
1828.00	69.54	0.0317788
1832.00	69.47	0.0318148
1836.00	69.40	0.0318428
1840.00	69.34	0.0318527
1844.00	69.27	0.0318718
1848.00	69.20	0.0318592
1852.00	69.14	0.0318873
1856.00	69.07	0.0318836
1860.00	69.00	0.0319107
1864.00	68.94	0.0319478
1868.00	68.87	0.0319631
1872.00	68.80	0.0320100
1876.00	68.74	0.0320292
1880.00	68.67	0.0319956
1884.00	68.60	0.0320236
1888.00	68.54	0.0320561
1892.00	68.47	0.0320910
1896.00	68.41	0.0321250
1900.00	68.34	0.0321282
1904.00	68.27	0.0321468
1908.00	68.21	0.0321631
1912.00	68.14	0.0322159
1916.00	68.07	0.0322343
1920.00	68.01	0.0322702
1924.00	67.94	0.0323193
1928.00	67.87	0.0323771
1932.00	67.81	0.0324020
1936.00	67.74	0.0324386
1940.00	67.67	0.0325110
1944.00	67.61	0.0325556
1948.00	67.54	0.0325963
1952.00	67.47	0.0326419
1956.00	67.41	0.0327181
1960.00	67.34	0.0327768
1964.00	67.27	0.0328341
1968.00	67.21	0.0328816
1972.00	67.14	0.0329380
1976.00	67.07	0.0330049
1980.00	67.01	0.0331003
1984.00	66.94	0.0331583
1988.00	66.87	0.0332262
1992.00	66.81	0.0332960
1996.00	66.74	0.0333907
2000.00	66.67	0.0334961
2004.00	66.61	0.0336576
2008.00	66.54	0.0339284
2012.00	66.48	0.0345309
2016.00	66.41	0.0352389
2020.00	66.34	0.0360106
2024.00	66.28	0.0367789
2028.00	66.21	0.0374630
2032.00	66.14	0.0381306
2036.00	66.08	0.0387120
2040.00	66.01	0.0392327
2044.00	65.95	0.0397466
2048.00	65.88	0.0402392
2052.00	65.81	0.0407154
2056.00	65.75	0.0411595
2060.00	65.68	0.0416651
2064.00	65.61	0.0421960
2068.00	65.55	0.0426832
2072.00	65.48	0.0431126
2076.00	65.41	0.0434824
2080.00	65.35	0.0437671
2084.00	65.28	0.0439134
2088.00	65.21	0.0440373
2092.00	65.15	0.0441837
2096.00	65.08	0.0442594
2100.00	65.01	0.0442768
2104.00	64.95	0.0442686
2108.00	64.88	0.0442022
2112.00	64.81	0.0440775
2116.00	64.75	0.0439254
2120.00	64.68	0.0437364
2124.00	64.61	0.0435445
2128.00	64.55	0.0433445
2132.00	64.48	0.0431025
2136.00	64.41	0.0428700
2140.00	64.35	0.0426619
2144.00	64.28	0.0424066
2148.00	64.21	0.0421347
2152.00	64.15	0.0419312
2156.00	64.08	0.0417461
2160.00	64.01	0.0415505
2164.00	63.94	0.0413146
2168.00	63.88	0.0411328
2172.00	63.81	0.0409364
2176.00	63.74	0.0407387
2180.00	63.68	0.0405656
2184.00	63.61	0.0403946
2188.00	63.55	0.0402152
2192.00	63.48	0.0400410
2196.00	63.41	0.0399220
2200.00	63.34	0.0397494
2204.00	63.28	0.0395932
2208.00	63.21	0.0394236
2212.00	63.15	0.0392834
2216.00	63.08	0.0390812
2220.00	63.01	0.0389366
2224.00	62.94	0.0387911
2228.00	62.88	0.0386757
2232.00	62.81	0.0385465
2236.00	62.74	0.0384105
2240.00	62.68	0.0382730
2244.00	62.61	0.0381689
2248.00	62.54	0.0380336
2252.00	62.48	0.0379474
2256.00	62.41	0.0378514
2260.00	62.34	0.0377623
2264.00	62.28	0.0376429
2268.00	62.21	0.0375532
2272.00	62.14	0.0374466
2276.00	62.08	0.0373246
2280.00	62.01	0.0372359
2284.00	61.94	0.0371339
2288.00	61.88	0.0370174
2292.00	61.81	0.0369200
2296.00	61.74	0.0368182
2300.00	61.68	0.0367562
2304.00	61.61	0.0366457
2308.00	61.54	0.0365458
2312.00	61.48	0.0364806
2316.00	61.41	0.0364109
2320.00	61.34	0.0363519
2324.00	61.28	0.0362760
2328.00	61.21	0.0362025
2332.00	61.14	0.0361447
2336.00	61.08	0.0360480
2340.00	61.01	0.0359743
2344.00	60.94	0.0358902
2348.00	60.88	0.0358211
2352.00	60.81	0.0357753
2356.00	60.74	0.0357021
2360.00	60.68	0.0356334
2364.00	60.61	0.0355468
2368.00	60.54	0.0354712
2372.00	60.48	0.0354154
2376.00	60.41	0.0353684
2380.00	60.34	0.0353319
2384.00	60.28	0.0352773
2388.00	60.21	0.0352340
2392.00	60.14	0.0351935
2396.00	60.08	0.0351812
2400.00	60.01	0.0351408
2404.00	59.94	0.0350970
2408.00	59.88	0.0350847
2412.00	59.81	0.0350253
2416.00	59.74	0.0349985
2420.00	59.68	0.0350732
2424.00	59.61	0.0352829
2428.00	59.54	0.0357485
2432.00	59.48	0.0363137
2436.00	59.41	0.0365918
2440.00	59.34	0.0364753
2444.00	59.28	0.0362372
2448.00	59.21	0.0360302
2452.00	59.14	0.0358442
2456.00	59.08	0.0357114
2460.00	59.01	0.0356550
2464.00	58.94	0.0356813
2468.00	58.88	0.0357396
2472.00	58.81	0.0358059
2476.00	58.74	0.0359163
2480.00	58.68	0.0360638
2484.00	58.61	0.0362696
2488.00	58.55	0.0365152
2492.00	58.48	0.0368369
2496.00	58.41	0.0371890
2500.00	58.35	0.0375607
2504.00	58.28	0.0379136
2508.00	58.21	0.0382485
2512.00	58.15	0.0385427
2516.00	58.08	0.0388968
2520.00	58.01	0.0393039
2524.00	57.95	0.0397623
2528.00	57.88	0.0403367
2532.00	57.82	0.0411557
2536.00	57.75	0.0442511
2540.00	57.68	0.0460846
2544.00	57.62	0.0464128
2548.00	57.55	0.0459011
2552.00	57.48	0.0443030
2556.00	57.41	0.0430009
2560.00	57.34	0.0419154
2564.00	57.28	0.0406671
2568.00	57.21	0.0396336
2572.00	57.14	0.0387454
2576.00	57.08	0.0379354
2580.00	57.01	0.0372023
2584.00	56.94	0.0365461
2588.00	56.88	0.0359595
2592.00	56.81	0.0354486
2596.00	56.74	0.0349831
2600.00	56.68	0.0345756
2604.00	56.61	0.0342166
2608.00	56.54	0.0339163
2612.00	56.47	0.0336347
2616.00	56.41	0.0334138
2620.00	56.34	0.0332045
2624.00	56.27	0.0329914
2628.00	56.21	0.0328170
2632.00	56.14	0.0326656
2636.00	56.08	0.0325082
2640.00	56.01	0.0323742
2644.00	55.94	0.0322559
2648.00	55.87	0.0321183
2652.00	55.81	0.0320258
2656.00	55.74	0.0319057
2660.00	55.67	0.0317786
2664.00	55.61	0.0316821
2668.00	55.54	0.0315930
2672.00	55.47	0.0315153
2676.00	55.41	0.0314482
2680.00	55.34	0.0313562
2684.00	55.27	0.0312876
2688.00	55.21	0.0312208
2692.00	55.14	0.0311387
2696.00	55.07	0.0310954
2700.00	55.01	0.0310202
2704.00	54.94	0.0309542
2708.00	54.87	0.0309167
2712.00	54.81	0.0308599
2716.00	54.74	0.0307923
2720.00	54.67	0.0307437
2724.00	54.61	0.0306949
2728.00	54.54	0.0306308
2732.00	54.47	0.0305613
2736.00	54.41	0.0305169
2740.00	54.34	0.0304728
2744.00	54.27	0.0303824
2748.00	54.21	0.0303604
2752.00	54.14	0.0303105
2756.00	54.07	0.0302885
2760.00	54.01	0.0302636
2764.00	53.94	0.0302343
2768.00	53.87	0.0302028
2772.00	53.81	0.0301339
2776.00	53.74	0.0301180
2780.00	53.67	0.0300911
2784.00	53.61	0.0300360
2788.00	53.54	0.0299768
2792.00	53.47	0.0299229
2796.00	53.41	0.0298817
2800.00	53.34	0.0298598
2804.00	53.27	0.0298243
2808.00	53.21	0.0297850
2812.00	53.14	0.0297347
2816.00	53.07	0.0297172
2820.00	53.01	0.0296987
2824.00	52.94	0.0296558
2828.00	52.87	0.0296167
2832.00	52.81	0.0295693
2836.00	52.74	0.0295255
2840.00	52.67	0.0295013
2844.00	52.61	0.0294730
2848.00	52.54	0.0294536
2852.00	52.47	0.0294221
2856.00	52.41	0.0293868
2860.00	52.34	0.0293677
2864.00	52.27	0.0293350
2868.00	52.21	0.0293018
2872.00	52.14	0.0292625
2876.00	52.07	0.0292382
2880.00	52.01	0.0292064
2884.00	51.94	0.0291753
2888.00	51.87	0.0291245
2892.00	51.81	0.0290805
2896.00	51.74	0.0290798
2900.00	51.67	0.0290609
2904.00	51.61	0.0290537
2908.00	51.54	0.0290113
2912.00	51.47	0.0290203
2916.00	51.41	0.0290167
2920.00	51.34	0.0289823
2924.00	51.27	0.0289324
2928.00	51.21	0.0289101
2932.00	51.14	0.0288735
2936.00	51.07	0.0288466
2940.00	51.01	0.0288034
2944.00	50.94	0.0287713
2948.00	50.87	0.0287706
2952.00	50.81	0.0287680
2956.00	50.74	0.0287226
2960.00	50.67	0.0286975
2964.00	50.61	0.0286581
2968.00	50.54	0.0286300
2972.00	50.47	0.0286243
2976.00	50.41	0.0286147
2980.00	50.34	0.0286065
2984.00	50.27	0.0285968
2988.00	50.21	0.0285869
2992.00	50.14	0.0285459
2996.00	50.07	0.0285338
3000.00	50.01	0.0285140
3004.00	49.94	0.0284652
3008.00	49.87	0.0284488
3012.00	49.81	0.0284360
3016.00	49.74	0.0284091
3020.00	49.67	0.0283891
3024.00	49.61	0.0283836
3028.00	49.54	0.0283349
3032.00	49.47	0.0282864
3036.00	49.41	0.0282832
3040.00	49.34	0.0282462
3044.00	49.27	0.0282489
3048.00	49.21	0.0282334
3052.00	49.14	0.0282108
3056.00	49.07	0.0282010
3060.00	49.01	0.0281985
3064.00	48.94	0.0281814
3068.00	48.87	0.0281494
3072.00	48.81	0.0281556
3076.00	48.74	0.0281516
3080.00	48.67	0.0281328
3084.00	48.61	0.0280958
3088.00	48.54	0.0281129
3092.00	48.47	0.0280877
3096.00	48.41	0.0280402
3100.00	48.34	0.0280395
3104.00	48.27	0.0279907
3108.00	48.21	0.0279517
3112.00	48.14	0.0279039
3116.00	48.07	0.0278852
3120.00	48.01	0.0278333
3124.00	47.94	0.0278224
3128.00	47.87	0.0278109
3132.00	47.81	0.0278020
3136.00	47.74	0.0278091
3140.00	47.67	0.0278210
3144.00	47.61	0.0278503
3148.00	47.54	0.0278341
3152.00	47.47	0.0278441
3156.00	47.41	0.0278720
3160.00	47.34	0.0278690
3164.00	47.27	0.0278497
3168.00	47.21	0.0277879
3172.00	47.14	0.0277507
3176.00	47.07	0.0277314
3180.00	47.01	0.0276805
3184.00	46.94	0.0276682
3188.00	46.87	0.0276390
3192.00	46.81	0.0275809
3196.00	46.74	0.0275693
3200.00	46.67	0.0275530
3204.00	46.61	0.0275320
3208.00	46.54	0.0275345
3212.00	46.47	0.0275373
3216.00	46.41	0.0275242
3220.00	46.34	0.0275077
3224.00	46.27	0.0274733
3228.00	46.21	0.0275074
3232.00	46.14	0.0275110
3236.00	46.07	0.0275062
3240.00	46.01	0.0275425
3244.00	45.94	0.0275086
3248.00	45.87	0.0274779
3252.00	45.81	0.0274642
3256.00	45.74	0.0274315
3260.00	45.67	0.0274075
3264.00	45.61	0.0274067
3268.00	45.54	0.0274029
3272.00	45.47	0.0273933
3276.00	45.41	0.0273713
3280.00	45.34	0.0273686
3284.00	45.27	0.0273301
3288.00	45.21	0.0273230
3292.00	45.14	0.0273138
3296.00	45.07	0.0273236
3300.00	45.01	0.0272966
3304.00	44.94	0.0272891
3308.00	44.87	0.0272926
3312.00	44.81	0.0272908
3316.00	44.74	0.0272443
3320.00	44.67	0.0272442
3324.00	44.61	0.0272153
3328.00	44.54	0.0271861
3332.00	44.47	0.0271730
3336.00	44.41	0.0271668
3340.00	44.34	0.0271428
3344.00	44.27	0.0271040
3348.00	44.21	0.0270947
3352.00	44.14	0.0270508
3356.00	44.07	0.0270633
3360.00	44.01	0.0270825
3364.00	43.94	0.0270674
3368.00	43.87	0.0270648
3372.00	43.81	0.0270508
3376.00	43.74	0.0271038
3380.00	43.67	0.0270943
3384.00	43.61	0.0271084
3388.00	43.54	0.0271039
3392.00	43.47	0.0270789
3396.00	43.41	0.0270476
3400.00	43.34	0.0270032
3404.00	43.27	0.0269906
3408.00	43.21	0.0269872
3412.00	43.14	0.0269507
3416.00	43.07	0.0269431
3420.00	43.01	0.0269323
3424.00	42.94	0.0269193
3428.00	42.87	0.0269198
3432.00	42.81	0.0269340
3436.00	42.74	0.0268995
3440.00	42.67	0.0269130
3444.00	42.61	0.0268812
3448.00	42.54	0.0268859
3452.00	42.47	0.0268474
3456.00	42.41	0.0268388
3460.00	42.34	0.0268117
3464.00	42.27	0.0268065
3468.00	42.21	0.0267951
3472.00	42.14	0.0267892
3476.00	42.07	0.0267777
3480.00	42.01	0.0267741
3484.00	41.94	0.0267543
3488.00	41.87	0.0267560
3492.00	41.81	0.0267466
3496.00	41.74	0.0267249
3500.00	41.67	0.0266847
3504.00	41.61	0.0266850
3508.00	41.54	0.0266367
3512.00	41.47	0.0266297
3516.00	41.41	0.0266103
3520.00	41.34	0.0266130
3524.00	41.27	0.0266076
3528.00	41.21	0.0265811
3532.00	41.14	0.0265951
3536.00	41.07	0.0266034
3540.00	41.01	0.0265837
3544.00	40.94	0.0265735
3548.00	40.87	0.0265562
3552.00	40.81	0.0265531
3556.00	40.74	0.0265308
3560.00	40.67	0.0265250
3564.00	40.61	0.0265361
3568.00	40.54	0.0265086
3572.00	40.47	0.0264726
3576.00	40.41	0.0264472
3580.00	40.34	0.0264564
3584.00	40.27	0.0264515
3588.00	40.21	0.0264481
3592.00	40.14	0.0264236
3596.00	40.07	0.0264298
3600.00	40.01	0.0264482
3604.00	39.94	0.0264247
3608.00	39.87	0.0264003
3612.00	39.81	0.0263726
3616.00	39.74	0.0263442
3620.00	39.67	0.0263343
3624.00	39.61	0.0263283
3628.00	39.54	0.0263189
3632.00	39.47	0.0263250
3636.00	39.41	0.0263314
3640.00	39.34	0.0263004
3644.00	39.27	0.0263050
3648.00	39.21	0.0262982
3652.00	39.14	0.0262922
3656.00	39.07	0.0262948
3660.00	39.01	0.0262901
3664.00	38.94	0.0262748
3668.00	38.87	0.0262458
3672.00	38.81	0.0262358
3676.00	38.74	0.0262131
3680.00	38.67	0.0261784
3684.00	38.61	0.0261639
3688.00	38.54	0.0261897
3692.00	38.47	0.0261779
3696.00	38.41	0.0261772
3700.00	38.34	0.0261604
3704.00	38.27	0.0261131
3708.00	38.21	0.0260966
3712.00	38.14	0.0260602
3716.00	38.07	0.0260533
3720.00	38.01	0.0260673
3724.00	37.94	0.0260426
3728.00	37.87	0.0260304
3732.00	37.81	0.0260528
3736.00	37.74	0.0260808
3740.00	37.67	0.0260509
3744.00	37.61	0.0260315
3748.00	37.54	0.0260067
3752.00	37.47	0.0260176
3756.00	37.41	0.0260090
3760.00	37.34	0.0259801
3764.00	37.27	0.0259816
3768.00	37.21	0.0259550
3772.00	37.14	0.0259290
3776.00	37.08	0.0259101
3780.00	37.01	0.0258915
3784.00	36.94	0.0258598
3788.00	36.87	0.0258683
3792.00	36.81	0.0258796
3796.00	36.74	0.0258768
3800.00	36.67	0.0259130
3804.00	36.61	0.0258851
3808.00	36.54	0.0258868
3812.00	36.47	0.0258786
3816.00	36.41	0.0258545
3820.00	36.34	0.0258314
3824.00	36.27	0.0258292
3828.00	36.21	0.0258110
3832.00	36.14	0.0258225
3836.00	36.07	0.0257914
3840.00	36.01	0.0257999
3844.00	35.94	0.0257889
3848.00	35.87	0.0257639
3852.00	35.81	0.0257634
3856.00	35.74	0.0257444
3860.00	35.67	0.0257266
3864.00	35.61	0.0256998
3868.00	35.54	0.0257199
3872.00	35.47	0.0256872
3876.00	35.41	0.0256817
3880.00	35.34	0.0256714
3884.00	35.27	0.0256693
3888.00	35.21	0.0256566
3892.00	35.14	0.0256620
3896.00	35.07	0.0256466
3900.00	35.01	0.0256356
3904.00	34.94	0.0256269
3908.00	34.87	0.0255893
3912.00	34.81	0.0255621
3916.00	34.74	0.0255649
3920.00	34.67	0.0255426
3924.00	34.61	0.0255270
3928.00	34.54	0.0255476
3932.00	34.47	0.0255253
3936.00	34.41	0.0255421
3940.00	34.34	0.0255343
3944.00	34.27	0.0255209
3948.00	34.21	0.0255036
3952.00	34.14	0.0255001
3956.00	34.07	0.0255065
3960.00	34.01	0.0254896
3964.00	33.94	0.0254972
3968.00	33.87	0.0254844
3972.00	33.81	0.0254472
3976.00	33.74	0.0254578
3980.00	33.67	0.0254354
3984.00	33.61	0.0254088
3988.00	33.54	0.0254143
3992.00	33.47	0.0253907
3996.00	33.41	0.0253912
4000.00	33.34	0.0253875
4004.00	33.27	0.0253855
4008.00	33.21	0.0253883
4012.00	33.14	0.0253759
4016.00	33.07	0.0253622
4020.00	33.01	0.0253545
4024.00	32.94	0.0253201
4028.00	32.87	0.0253016
4032.00	32.81	0.0252946
4036.00	32.74	0.0252600
4040.00	32.67	0.0252450
4044.00	32.61	0.0252535
4048.00	32.54	0.0252387
4052.00	32.47	0.0252519
4056.00	32.41	0.0252431
4060.00	32.34	0.0252518
4064.00	32.27	0.0252614
4068.00	32.21	0.0252509
4072.00	32.14	0.0252273
4076.00	32.07	0.0252084
4080.00	32.01	0.0252149
4084.00	31.94	0.0251843
4088.00	31.87	0.0251723
4092.00	31.81	0.0251532
4096.00	31.74	0.0251405
4100.00	31.67	0.0251229
4104.00	31.61	0.0251269
4108.00	31.54	0.0251183
4112.00	31.47	0.0250917
4116.00	31.41	0.0250918
4120.00	31.34	0.0250681
4124.00	31.27	0.0250503
4128.00	31.21	0.0250466
4132.00	31.14	0.0250446
4136.00	31.07	0.0250301
4140.00	31.01	0.0250457
4144.00	30.94	0.0250603
4148.00	30.87	0.0250467
4152.00	30.81	0.0250242
4156.00	30.74	0.0250105
4160.00	30.67	0.0249960
4164.00	30.61	0.0250052
4168.00	30.54	0.0249883
4172.00	30.47	0.0249792
4176.00	30.41	0.0249802
4180.00	30.34	0.0249681
4184.00	30.27	0.0249982
4188.00	30.21	0.0249810
4192.00	30.14	0.0249776
4196.00	30.07	0.0249385
4200.00	30.01	0.0249080
4204.00	29.94	0.0248825
4208.00	29.87	0.0248997
4212.00	29.81	0.0248912
4216.00	29.74	0.0248675
4220.00	29.67	0.0248608
4224.00	29.61	0.0248383
4228.00	29.54	0.0248217
4232.00	29.47	0.0248153
4236.00	29.41	0.0248176
4240.00	29.34	0.0247975
4244.00	29.27	0.0247871
4248.00	29.21	0.0247774
4252.00	29.14	0.0247854
4256.00	29.07	0.0247665
4260.00	29.01	0.0247112
4264.00	28.94	0.0247242
4268.00	28.87	0.0247221
4272.00	28.81	0.0247258
4276.00	28.74	0.0247046
4280.00	28.67	0.0247026
4284.00	28.61	0.0247083
4288.00	28.54	0.0247322
4292.00	28.47	0.0247371
4296.00	28.41	0.0247428
4300.00	28.34	0.0247424
4304.00	28.27	0.0247365
4308.00	28.21	0.0247124
4312.00	28.14	0.0246994
4316.00	28.07	0.0246745
4320.00	28.01	0.0246503
4324.00	27.94	0.0246305
4328.00	27.87	0.0246030
4332.00	27.81	0.0245811
4336.00	27.74	0.0245353
4340.00	27.67	0.0245343
4344.00	27.61	0.0245149
4348.00	27.54	0.0245308
4352.00	27.47	0.0245271
4356.00	27.41	0.0245384
4360.00	27.34	0.0245349
4364.00	27.27	0.0245164
4368.00	27.21	0.0244804
4372.00	27.14	0.0244644
4376.00	27.07	0.0244606
4380.00	27.01	0.0244879
4384.00	26.94	0.0244632
4388.00	26.87	0.0244717
4392.00	26.81	0.0244625
4396.00	26.74	0.0244062
4400.00	26.67	0.0244232
4404.00	26.61	0.0244202
4408.00	26.54	0.0244443
4412.00	26.47	0.0244216
4416.00	26.41	0.0244313
4420.00	26.34	0.0244004
4424.00	26.27	0.0244107
4428.00	26.21	0.0244075
4432.00	26.14	0.0243857
4436.00	26.07	0.0243659
4440.00	26.01	0.0243591
4444.00	25.94	0.0243670
4448.00	25.88	0.0244132
4452.00	25.81	0.0246747
4456.00	25.78	0.0128700
4460.00	25.84	0.109130
4464.00	26.01	0.420535
4468.00	26.16	0.719922
4472.00	26.32	1.00738
4476.00	26.48	1.38490
4480.00	26.49	1.60939
4484.00	26.36	1.55424
4488.00	26.19	1.41409
4492.00	26.02	1.27008
4496.00	25.85	1.14045
4500.00	25.69	1.00463
4504.00	25.52	0.866116
4508.00	25.37	0.742649
4512.00	25.25	0.645597
4516.00	25.14	0.581827
4520.00	25.05	0.540664
4524.00	24.95	0.522713
4528.00	24.81	0.464159
4532.00	24.63	0.294144
4536.00	24.50	0.178696
4540.00	24.39	0.113640
4544.00	24.31	0.0765530
4548.00	24.23	0.0547317
4552.00	24.15	0.0426790
4556.00	24.08	0.0362488
4560.00	24.01	0.0322187
4564.00	23.94	0.0302537
4568.00	23.88	0.0292311
4572.00	23.81	0.0284905
4576.00	23.74	0.0278315
4580.00	23.67	0.0271884
4584.00	23.61	0.0266066
4588.00	23.54	0.0260966
4592.00	23.47	0.0256396
4596.00	23.41	0.0252725
4600.00	23.34	0.0249417
4604.00	23.27	0.0246375
4608.00	23.21	0.0243662
4612.00	23.14	0.0241630
4616.00	23.07	0.0239344
4620.00	23.01	0.0237511
4624.00	22.94	0.0235644
4628.00	22.87	0.0233978
4632.00	22.81	0.0232427
4636.00	22.74	0.0230775
4640.00	22.67	0.0229518
4644.00	22.61	0.0228251
4648.00	22.54	0.0226957
4652.00	22.47	0.0225757
4656.00	22.41	0.0224885
4660.00	22.34	0.0223726
4664.00	22.27	0.0222778
4668.00	22.21	0.0221744
4672.00	22.14	0.0220830
4676.00	22.07	0.0219862
4680.00	22.01	0.0219193
4684.00	21.94	0.0218511
4688.00	21.87	0.0217650
4692.00	21.81	0.0216792
4696.00	21.74	0.0215803
4700.00	21.67	0.0214793
4704.00	21.61	0.0214170
4708.00	21.54	0.0213490
4712.00	21.47	0.0212762
4716.00	21.41	0.0211969
4720.00	21.34	0.0211798
4724.00	21.27	0.0210978
4728.00	21.21	0.0210476
4732.00	21.14	0.0209751
4736.00	21.07	0.0209242
4740.00	21.01	0.0208726
4744.00	20.94	0.0208214
4748.00	20.87	0.0207631
4752.00	20.81	0.0206998
4756.00	20.74	0.0206530
4760.00	20.67	0.0206078
4764.00	20.61	0.0205622
4768.00	20.54	0.0205171
4772.00	20.47	0.0204582
4776.00	20.41	0.0204248
4780.00	20.34	0.0203670
4784.00	20.27	0.0203255
4788.00	20.21	0.0202661
4792.00	20.14	0.0201959
4796.00	20.07	0.0201586
4800.00	20.01	0.0201060
4804.00	19.94	0.0200976
4808.00	19.87	0.0200406
4812.00	19.81	0.0200116
4816.00	19.74	0.0199948
4820.00	19.67	0.0199770
4824.00	19.61	0.0199476
4828.00	19.54	0.0198887
4832.00	19.47	0.0198561
4836.00	19.41	0.0198107
4840.00	19.34	0.0197922
4844.00	19.27	0.0197388
4848.00	19.20	0.0197201
4852.00	19.14	0.0196813
4856.00	19.07	0.0196406
4860.00	19.01	0.0196096
4864.00	18.94	0.0195640
4868.00	18.87	0.0195284
4872.00	18.81	0.0194740
4876.00	18.74	0.0194509
4880.00	18.67	0.0194187
4884.00	18.60	0.0193707
4888.00	18.54	0.0193395
4892.00	18.47	0.0193383
4896.00	18.41	0.0192895
4900.00	18.34	0.0192283
4904.00	18.27	0.0192250
4908.00	18.20	0.0191718
4912.00	18.14	0.0191544
4916.00	18.07	0.0191467
4920.00	18.00	0.0191160
4924.00	17.94	0.0190731
4928.00	17.87	0.0190397
4932.00	17.81	0.0190184
4936.00	17.74	0.0189884
4940.00	17.67	0.0189445
4944.00	17.60	0.0189041
4948.00	17.54	0.0188794
4952.00	17.47	0.0188713
4956.00	17.41	0.0188554
4960.00	17.34	0.0188074
4964.00	17.27	0.0187737
4968.00	17.20	0.0187564
4972.00	17.14	0.0187394
4976.00	17.07	0.0187316
4980.00	17.00	0.0186924
4984.00	16.94	0.0187000
4988.00	16.87	0.0186654
4992.00	16.80	0.0186303
4996.00	16.74	0.0186043
5000.00	16.67	0.0185380
5004.00	16.61	0.0185008
5008.00	16.54	0.0184925
5012.00	16.47	0.0184722
5016.00	16.40	0.0184396
5020.00	16.34	0.0184045
5024.00	16.27	0.0183943
5028.00	16.21	0.0183718
5032.00	16.14	0.0183913
5036.00	16.07	0.0183835
5040.00	16.01	0.0183517
5044.00	15.94	0.0183410
5048.00	15.87	0.0183285
5052.00	15.80	0.0183256
5056.00	15.74	0.0183073
5060.00	15.67	0.0183041
5064.00	15.60	0.0182672
5068.00	15.54	0.0182269
5072.00	15.47	0.0181580
5076.00	15.40	0.0181495
5080.00	15.34	0.0181308
5084.00	15.27	0.0180954
5088.00	15.20	0.0180618
5092.00	15.14	0.0180440
5096.00	15.07	0.0180339
5100.00	15.00	0.0179917
5104.00	14.94	0.0179763
5108.00	14.87	0.0179486
5112.00	14.80	0.0179228
5116.00	14.74	0.0178983
5120.00	14.67	0.0178868
5124.00	14.60	0.0178654
5128.00	14.54	0.0178534
5132.00	14.47	0.0178145
5136.00	14.40	0.0178003
5140.00	14.34	0.0177808
5144.00	14.27	0.0177447
5148.00	14.21	0.0177297
5152.00	14.14	0.0177235
5156.00	14.07	0.0177296
5160.00	14.01	0.0176985
5164.00	13.94	0.0176591
5168.00	13.87	0.0176404
5172.00	13.81	0.0176294
5176.00	13.74	0.0176310
5180.00	13.67	0.0175979
5184.00	13.61	0.0175701
5188.00	13.54	0.0175240
5192.00	13.47	0.0175396
5196.00	13.41	0.0175128
5200.00	13.34	0.0174976
5204.00	13.27	0.0174757
5208.00	13.21	0.0174713
5212.00	13.14	0.0174698
5216.00	13.07	0.0174479
5220.00	13.00	0.0174116
5224.00	12.94	0.0173899
5228.00	12.87	0.0173692
5232.00	12.81	0.0173563
5236.00	12.74	0.0173466
5240.00	12.67	0.0173313
5244.00	12.60	0.0173010
5248.00	12.54	0.0172810
5252.00	12.47	0.0172554
5256.00	12.40	0.0172382
5260.00	12.34	0.0172271
5264.00	12.27	0.0171948
5268.00	12.21	0.0171732
5272.00	12.14	0.0171569
5276.00	12.07	0.0171351
5280.00	12.00	0.0171297
5284.00	11.94	0.0171082
5288.00	11.87	0.0170822
5292.00	11.81	0.0170568
5296.00	11.74	0.0170439
5300.00	11.67	0.0170369
5304.00	11.61	0.0170444
5308.00	11.54	0.0170263
5312.00	11.47	0.0169842
5316.00	11.41	0.0169615
5320.00	11.34	0.0169492
5324.00	11.27	0.0169653
5328.00	11.20	0.0169716
5332.00	11.14	0.0169408
5336.00	11.07	0.0169299
5340.00	11.01	0.0168738
5344.00	10.94	0.0168576
5348.00	10.87	0.0168234
5352.00	10.80	0.0167952
5356.00	10.74	0.0167556
5360.00	10.67	0.0167595
5364.00	10.60	0.0167645
5368.00	10.54	0.0167398
5372.00	10.47	0.0167128
5376.00	10.40	0.0167103
5380.00	10.34	0.0167045
5384.00	10.27	0.0166807
5388.00	10.20	0.0166560
5392.00	10.14	0.0166226
5396.00	10.07	0.0165913
5400.00	10.01	0.0165489
5404.00	9.94	0.0165414
5408.00	9.87	0.0165473
5412.00	9.80	0.0165170
5416.00	9.74	0.0165014
5420.00	9.67	0.0164772
5424.00	9.60	0.0164494
5428.00	9.54	0.0164365
5432.00	9.47	0.0164060
5436.00	9.40	0.0164140
5440.00	9.34	0.0163920
5444.00	9.27	0.0163975
5448.00	9.20	0.0163821
5452.00	9.14	0.0163501
5456.00	9.07	0.0163161
5460.00	9.01	0.0162923
5464.00	8.94	0.0162799
5468.00	8.87	0.0162554
5472.00	8.80	0.0162535
5476.00	8.74	0.0162195
5480.00	8.67	0.0162004
5484.00	8.60	0.0161876
5488.00	8.54	0.0161576
5492.00	8.47	0.0161376
5496.00	8.41	0.0161182
5500.00	8.34	0.0161002
5504.00	8.27	0.0160868
5508.00	8.20	0.0160815
5512.00	8.14	0.0160711
5516.00	8.07	0.0160666
5520.00	8.00	0.0160490
5524.00	7.94	0.0160374
5528.00	7.87	0.0160304
5532.00	7.80	0.0160041
5536.00	7.74	0.0159788
5540.00	7.67	0.0159611
5544.00	7.61	0.0159705
5548.00	7.54	0.0159738
5552.00	7.47	0.0159394
5556.00	7.40	0.0159482
5560.00	7.34	0.0159200
5564.00	7.27	0.0159105
5568.00	7.20	0.0159052
5572.00	7.14	0.0158740
5576.00	7.07	0.0158540
5580.00	7.00	0.0158427
5584.00	6.94	0.0158097
5588.00	6.87	0.0157949
5592.00	6.80	0.0157766
5596.00	6.74	0.0157697
5600.00	6.67	0.0157492
5604.00	6.60	0.0157321
5608.00	6.54	0.0156964
5612.00	6.47	0.0156853
5616.00	6.40	0.0156768
5620.00	6.34	0.0156701
5624.00	6.27	0.0156691
5628.00	6.20	0.0156537
5632.00	6.14	0.0156102
5636.00	6.07	0.0156048
5640.00	6.00	0.0155946
5644.00	5.94	0.0155862
5648.00	5.87	0.0155702
5652.00	5.80	0.0155422
5656.00	5.74	0.0155424
5660.00	5.67	0.0155400
5664.00	5.60	0.0155263
5668.00	5.54	0.0155142
5672.00	5.47	0.0154897
5676.00	5.40	0.0154759
5680.00	5.34	0.0154680
5684.00	5.27	0.0154500
5688.00	5.21	0.0154401
5692.00	5.14	0.0154008
5696.00	5.07	0.0153824
5700.00	5.00	0.0153691
5704.00	4.94	0.0153663
5708.00	4.87	0.0153499
5712.00	4.80	0.0153691
5716.00	4.74	0.0153496
5720.00	4.67	0.0153441
5724.00	4.60	0.0153159
5728.00	4.54	0.0153019
5732.00	4.47	0.0152966
5736.00	4.40	0.0152512
5740.00	4.34	0.0152244
5744.00	4.27	0.0152155
5748.00	4.20	0.0151782
5752.00	4.14	0.0151966
5756.00	4.07	0.0151634
5760.00	4.01	0.0151585
5764.00	3.94	0.0151458
5768.00	3.87	0.0151246
5772.00	3.80	0.0151068
5776.00	3.74	0.0151013
5780.00	3.67	0.0151004
5784.00	3.60	0.0150939
5788.00	3.54	0.0150826
5792.00	3.47	0.0150640
5796.00	3.40	0.0150677
5800.00	3.34	0.0150540
5804.00	3.27	0.0150818
5808.00	3.20	0.0150620
5812.00	3.14	0.0150702
5816.00	3.07	0.0150502
5820.00	3.00	0.0150578
5824.00	2.94	0.0150425
5828.00	2.87	0.0150349
5832.00	2.80	0.0150148
5836.00	2.74	0.0149996
5840.00	2.67	0.0149876
5844.00	2.60	0.0149759
5848.00	2.54	0.0149485
5852.00	2.47	0.0149337
5856.00	2.40	0.0149361
5860.00	2.34	0.0149317
5864.00	2.27	0.0149045
5868.00	2.20	0.0148960
5872.00	2.14	0.0148796
5876.00	2.07	0.0148839
5880.00	2.00	0.0148780
5884.00	1.94	0.0148573
5888.00	1.87	0.0148367
5892.00	1.80	0.0148411
5896.00	1.74	0.0148017
5900.00	1.67	0.0147952
5904.00	1.60	0.0148180
5908.00	1.54	0.0148195
5912.00	1.47	0.0147967
5916.00	1.41	0.0147850
5920.00	1.34	0.0147569
5924.00	1.27	0.0147684
5928.00	1.20	0.0147481
5932.00	1.14	0.0147520
5936.00	1.07	0.0147278
5940.00	1.00	0.0147205
5944.00	0.94	0.0147330
5948.00	0.87	0.0147210
5952.00	0.80	0.0147160
5956.00	0.74	0.0147233
5960.00	0.67	0.0147298
5964.00	0.60	0.0147072
5968.00	0.54	0.0146977
5972.00	0.47	0.0146832
5976.00	0.40	0.0146791
5980.00	0.34	0.0146626
5984.00	0.27	0.0146533
5988.00	0.20	0.0146199
5992.00	0.14	0.0145992
5996.00	0.07	0.0146168
5999.90	0.01	0.0145942