File: Differential scanning calorimetry/8OCB Squalane/8OCB SqA wt fraction 523.txt
Filename	8OCBSA523
Instrument name	DSC2A-00101 (192.168.10.4)
Operator	Yuma
rundate	5/29/2021
Sample name	8OCBSA523
proceduresegments	Data Off ; Equilibrate 150.00 °C; Isothermal 10.0 min; Equilibrate 100.00 °C; Isothermal 5.0 min; Data On ; Ramp 1.00 °C/min to 0.00 °C; Ramp 5.00 °C/min to 150.00 °C; Data Off ; Isothermal 10.0 min; Modulate Temperature 1.00 °C for 60.0 s; Equilibrate 100.00 °C; Isothermal 10.0 min; Data On ; Ramp 1.00 °C/min to 0.00 °C; Ramp 3.00 °C/min to 100.00 °C; Jump 30.00 °C
[step]
Ramp 1.00 °C/min to 0.00 °C
Time	Temperature	Heat Flow (Normalized)
s	°C	W/g
0.00000	99.84	3.94124e-4
4.10000	99.83	3.73484e-4
8.20000	99.81	-1.02165e-3
12.3000	99.76	3.78531e-3
16.4000	99.71	0.0124897
20.5000	99.65	0.0192843
24.6000	99.59	0.0242985
28.7000	99.53	0.0270597
32.8000	99.46	0.0292252
36.9000	99.40	0.0304577
41.0000	99.33	0.0312460
45.1000	99.26	0.0317111
49.2000	99.19	0.0321872
53.3000	99.13	0.0325858
57.4000	99.06	0.0329582
61.5000	98.99	0.0332249
65.6000	98.92	0.0334649
69.7000	98.85	0.0336617
73.8000	98.79	0.0338067
77.9000	98.72	0.0339127
82.0000	98.65	0.0340305
86.1000	98.58	0.0340778
90.2000	98.51	0.0341139
94.3000	98.45	0.0341607
98.4000	98.38	0.0341791
102.500	98.31	0.0342260
106.600	98.24	0.0342609
110.700	98.17	0.0342966
114.800	98.10	0.0343235
118.900	98.03	0.0343338
123.000	97.97	0.0343602
127.100	97.90	0.0343702
131.200	97.83	0.0343745
135.300	97.76	0.0343614
139.400	97.69	0.0343390
143.500	97.63	0.0343359
147.600	97.56	0.0343199
151.700	97.49	0.0342984
155.800	97.42	0.0342953
159.900	97.35	0.0342884
164.000	97.28	0.0342955
168.100	97.22	0.0343158
172.200	97.15	0.0343042
176.300	97.08	0.0343098
180.400	97.01	0.0343055
184.500	96.94	0.0343201
188.600	96.87	0.0343321
192.700	96.81	0.0343127
196.800	96.74	0.0342673
200.900	96.67	0.0342347
205.000	96.60	0.0342422
209.100	96.53	0.0342504
213.200	96.46	0.0342827
217.300	96.40	0.0342898
221.400	96.33	0.0342922
225.500	96.26	0.0343018
229.600	96.19	0.0343085
233.700	96.12	0.0343149
237.800	96.06	0.0342987
241.900	95.99	0.0342639
246.000	95.92	0.0342541
250.100	95.85	0.0342467
254.200	95.78	0.0342405
258.300	95.71	0.0342478
262.400	95.64	0.0342402
266.500	95.58	0.0342396
270.600	95.51	0.0342187
274.700	95.44	0.0342095
278.800	95.37	0.0342407
282.900	95.30	0.0342556
287.000	95.23	0.0342421
291.100	95.17	0.0342103
295.200	95.10	0.0341947
299.300	95.03	0.0341868
303.400	94.96	0.0341984
307.500	94.89	0.0342151
311.600	94.82	0.0341993
315.700	94.76	0.0341932
319.800	94.69	0.0341825
323.900	94.62	0.0341953
328.000	94.55	0.0342234
332.100	94.48	0.0342348
336.200	94.41	0.0342357
340.300	94.35	0.0342205
344.400	94.28	0.0342309
348.500	94.21	0.0342301
352.600	94.14	0.0342015
356.700	94.07	0.0341733
360.800	94.00	0.0341608
364.900	93.94	0.0341712
369.000	93.87	0.0341798
373.100	93.80	0.0341756
377.200	93.73	0.0341616
381.300	93.66	0.0341163
385.400	93.59	0.0340841
389.500	93.53	0.0340616
393.600	93.46	0.0340518
397.700	93.39	0.0340734
401.800	93.32	0.0340952
405.900	93.25	0.0341125
410.000	93.18	0.0341398
414.100	93.12	0.0341548
418.200	93.05	0.0341545
422.300	92.98	0.0341450
426.400	92.91	0.0341431
430.500	92.84	0.0341321
434.600	92.77	0.0341407
438.700	92.71	0.0341313
442.800	92.64	0.0341150
446.900	92.57	0.0340874
451.000	92.50	0.0340900
455.100	92.43	0.0340894
459.200	92.36	0.0340961
463.300	92.30	0.0341066
467.400	92.23	0.0341088
471.500	92.16	0.0341305
475.600	92.09	0.0341459
479.700	92.02	0.0341522
483.800	91.95	0.0341269
487.900	91.89	0.0340905
492.000	91.82	0.0340763
496.100	91.75	0.0340641
500.200	91.68	0.0340554
504.300	91.61	0.0340227
508.400	91.55	0.0340210
512.500	91.48	0.0340251
516.600	91.41	0.0340322
520.700	91.34	0.0340293
524.800	91.27	0.0340372
528.900	91.20	0.0340455
533.000	91.13	0.0340702
537.100	91.07	0.0340595
541.200	91.00	0.0340550
545.300	90.93	0.0340474
549.400	90.86	0.0340294
553.500	90.79	0.0340264
557.600	90.73	0.0340209
561.700	90.66	0.0340151
565.800	90.59	0.0340216
569.900	90.52	0.0340503
574.000	90.45	0.0340618
578.100	90.38	0.0340624
582.200	90.31	0.0340702
586.300	90.25	0.0340556
590.400	90.18	0.0340154
594.500	90.11	0.0339947
598.600	90.04	0.0339795
602.700	89.97	0.0339682
606.800	89.91	0.0339851
610.900	89.84	0.0339861
615.000	89.77	0.0339795
619.100	89.70	0.0340008
623.200	89.63	0.0340143
627.300	89.56	0.0340102
631.400	89.50	0.0340318
635.500	89.43	0.0340483
639.600	89.36	0.0340121
643.700	89.29	0.0340002
647.800	89.22	0.0339928
651.900	89.15	0.0339928
656.000	89.08	0.0339983
660.100	89.02	0.0339887
664.200	88.95	0.0339961
668.300	88.88	0.0339899
672.400	88.81	0.0339886
676.500	88.74	0.0339812
680.600	88.67	0.0339726
684.700	88.61	0.0339774
688.800	88.54	0.0339731
692.900	88.47	0.0339706
697.000	88.40	0.0339657
701.100	88.33	0.0339586
705.200	88.27	0.0339591
709.300	88.20	0.0339453
713.400	88.13	0.0339417
717.500	88.06	0.0339287
721.600	87.99	0.0339365
725.700	87.92	0.0339161
729.800	87.86	0.0338860
733.900	87.79	0.0338866
738.000	87.72	0.0338977
742.100	87.65	0.0339111
746.200	87.58	0.0339244
750.300	87.51	0.0339321
754.400	87.45	0.0339328
758.500	87.38	0.0339100
762.600	87.31	0.0339237
766.700	87.24	0.0339361
770.800	87.17	0.0339628
774.900	87.10	0.0339696
779.000	87.04	0.0339439
783.100	86.97	0.0339176
787.200	86.90	0.0339111
791.300	86.83	0.0339047
795.400	86.76	0.0338918
799.500	86.69	0.0338854
803.600	86.63	0.0338901
807.700	86.56	0.0339004
811.800	86.49	0.0339077
815.900	86.42	0.0339049
820.000	86.35	0.0339013
824.100	86.28	0.0339050
828.200	86.22	0.0338824
832.300	86.15	0.0338734
836.400	86.08	0.0338826
840.500	86.01	0.0338773
844.600	85.94	0.0338809
848.700	85.87	0.0338873
852.800	85.81	0.0338811
856.900	85.74	0.0338882
861.000	85.67	0.0338866
865.100	85.60	0.0338865
869.200	85.53	0.0339109
873.300	85.46	0.0339097
877.400	85.40	0.0339072
881.500	85.33	0.0338992
885.600	85.26	0.0338778
889.700	85.19	0.0338642
893.800	85.12	0.0338481
897.900	85.05	0.0338348
902.000	84.99	0.0338133
906.100	84.92	0.0338014
910.200	84.85	0.0337901
914.300	84.78	0.0337843
918.400	84.71	0.0338026
922.500	84.65	0.0338080
926.600	84.58	0.0338047
930.700	84.51	0.0338321
934.800	84.44	0.0338445
938.900	84.37	0.0338556
943.000	84.30	0.0338785
947.100	84.23	0.0338966
951.200	84.17	0.0339013
955.300	84.10	0.0338972
959.400	84.03	0.0339054
963.500	83.96	0.0338967
967.600	83.89	0.0338764
971.700	83.82	0.0338768
975.800	83.76	0.0338837
979.900	83.69	0.0338706
984.000	83.62	0.0338615
988.100	83.55	0.0338383
992.200	83.48	0.0338490
996.300	83.42	0.0338418
1000.40	83.35	0.0338114
1004.50	83.28	0.0338258
1008.60	83.21	0.0338158
1012.70	83.14	0.0338091
1016.80	83.07	0.0338138
1020.90	83.01	0.0338332
1025.00	82.94	0.0338257
1029.10	82.87	0.0338183
1033.20	82.80	0.0338327
1037.30	82.73	0.0338503
1041.40	82.66	0.0338481
1045.50	82.60	0.0338479
1049.60	82.53	0.0338514
1053.70	82.46	0.0338357
1057.80	82.39	0.0338259
1061.90	82.32	0.0338334
1066.00	82.25	0.0338213
1070.10	82.19	0.0337901
1074.20	82.12	0.0337905
1078.30	82.05	0.0338051
1082.40	81.98	0.0338276
1086.50	81.91	0.0338175
1090.60	81.84	0.0338259
1094.70	81.78	0.0338482
1098.80	81.71	0.0338578
1102.90	81.64	0.0338562
1107.00	81.57	0.0338546
1111.10	81.50	0.0338578
1115.20	81.43	0.0338537
1119.30	81.37	0.0338478
1123.40	81.30	0.0338593
1127.50	81.23	0.0338653
1131.60	81.16	0.0338808
1135.70	81.09	0.0338913
1139.80	81.02	0.0338749
1143.90	80.96	0.0338571
1148.00	80.89	0.0338417
1152.10	80.82	0.0338387
1156.20	80.75	0.0338363
1160.30	80.68	0.0338310
1164.40	80.62	0.0338337
1168.50	80.55	0.0338344
1172.60	80.48	0.0338408
1176.70	80.41	0.0338637
1180.80	80.34	0.0338575
1184.90	80.27	0.0338406
1189.00	80.20	0.0338368
1193.10	80.14	0.0338462
1197.20	80.07	0.0338434
1201.30	80.00	0.0338667
1205.40	79.93	0.0338804
1209.50	79.86	0.0338810
1213.60	79.79	0.0338693
1217.70	79.73	0.0338409
1221.80	79.66	0.0338461
1225.90	79.59	0.0338520
1230.00	79.52	0.0338446
1234.10	79.45	0.0338282
1238.20	79.38	0.0338457
1242.30	79.32	0.0338527
1246.40	79.25	0.0338538
1250.50	79.18	0.0338271
1254.60	79.11	0.0338221
1258.70	79.04	0.0338427
1262.80	78.98	0.0338382
1266.90	78.91	0.0338433
1271.00	78.84	0.0338553
1275.10	78.77	0.0338519
1279.20	78.70	0.0338392
1283.30	78.63	0.0338410
1287.40	78.56	0.0338437
1291.50	78.50	0.0338493
1295.60	78.43	0.0338530
1299.70	78.36	0.0338517
1303.80	78.29	0.0338502
1307.90	78.22	0.0338584
1312.00	78.15	0.0338713
1316.10	78.09	0.0338636
1320.20	78.02	0.0338464
1324.30	77.95	0.0338626
1328.40	77.88	0.0338825
1332.50	77.81	0.0338444
1336.60	77.74	0.0338259
1340.70	77.68	0.0338510
1344.80	77.61	0.0338501
1348.90	77.54	0.0338580
1353.00	77.47	0.0338562
1357.10	77.40	0.0338792
1361.20	77.34	0.0338693
1365.30	77.27	0.0338847
1369.40	77.20	0.0338909
1373.50	77.13	0.0338875
1377.60	77.06	0.0338848
1381.70	76.99	0.0338671
1385.80	76.92	0.0338764
1389.90	76.86	0.0338906
1394.00	76.79	0.0338961
1398.10	76.72	0.0339041
1402.20	76.65	0.0339137
1406.30	76.58	0.0339177
1410.40	76.52	0.0339152
1414.50	76.45	0.0339052
1418.60	76.38	0.0339027
1422.70	76.31	0.0339028
1426.80	76.24	0.0338974
1430.90	76.17	0.0338848
1435.00	76.10	0.0338951
1439.10	76.04	0.0339018
1443.20	75.97	0.0338985
1447.30	75.90	0.0339162
1451.40	75.83	0.0339148
1455.50	75.76	0.0339141
1459.60	75.70	0.0339119
1463.70	75.63	0.0339237
1467.80	75.56	0.0339261
1471.90	75.49	0.0339232
1476.00	75.42	0.0339251
1480.10	75.35	0.0339246
1484.20	75.29	0.0339233
1488.30	75.22	0.0339162
1492.40	75.15	0.0339263
1496.50	75.08	0.0339129
1500.60	75.01	0.0339068
1504.70	74.94	0.0339185
1508.80	74.88	0.0339242
1512.90	74.81	0.0339423
1517.00	74.74	0.0339548
1521.10	74.67	0.0339690
1525.20	74.60	0.0339704
1529.30	74.53	0.0339761
1533.40	74.47	0.0340102
1537.50	74.40	0.0340271
1541.60	74.33	0.0340184
1545.70	74.26	0.0340320
1549.80	74.19	0.0340259
1553.90	74.12	0.0340370
1558.00	74.06	0.0340387
1562.10	73.99	0.0340208
1566.20	73.92	0.0340191
1570.30	73.85	0.0340012
1574.40	73.78	0.0340244
1578.50	73.71	0.0340231
1582.60	73.65	0.0340191
1586.70	73.58	0.0340218
1590.80	73.51	0.0340458
1594.90	73.44	0.0340594
1599.00	73.37	0.0340511
1603.10	73.30	0.0340618
1607.20	73.24	0.0340601
1611.30	73.17	0.0340688
1615.40	73.10	0.0340989
1619.50	73.03	0.0341062
1623.60	72.96	0.0341022
1627.70	72.89	0.0341080
1631.80	72.83	0.0341083
1635.90	72.76	0.0341183
1640.00	72.69	0.0341229
1644.10	72.62	0.0341203
1648.20	72.55	0.0341442
1652.30	72.49	0.0341484
1656.40	72.42	0.0341622
1660.50	72.35	0.0341631
1664.60	72.28	0.0341662
1668.70	72.21	0.0341595
1672.80	72.14	0.0341535
1676.90	72.08	0.0341807
1681.00	72.01	0.0341658
1685.10	71.94	0.0341736
1689.20	71.87	0.0341889
1693.30	71.80	0.0341846
1697.40	71.73	0.0341972
1701.50	71.67	0.0342064
1705.60	71.60	0.0342161
1709.70	71.53	0.0342225
1713.80	71.46	0.0342337
1717.90	71.39	0.0342454
1722.00	71.32	0.0342573
1726.10	71.25	0.0342632
1730.20	71.19	0.0342719
1734.30	71.12	0.0342921
1738.40	71.05	0.0343105
1742.50	70.98	0.0343273
1746.60	70.91	0.0343461
1750.70	70.85	0.0343455
1754.80	70.78	0.0343693
1758.90	70.71	0.0343639
1763.00	70.64	0.0343718
1767.10	70.57	0.0344040
1771.20	70.50	0.0344160
1775.30	70.44	0.0344145
1779.40	70.37	0.0344324
1783.50	70.30	0.0344360
1787.60	70.23	0.0344621
1791.70	70.16	0.0344799
1795.80	70.09	0.0345020
1799.90	70.02	0.0345319
1804.00	69.96	0.0345276
1808.10	69.89	0.0345503
1812.20	69.82	0.0345710
1816.30	69.75	0.0345892
1820.40	69.68	0.0346098
1824.50	69.61	0.0346279
1828.60	69.55	0.0346357
1832.70	69.48	0.0346338
1836.80	69.41	0.0346295
1840.90	69.34	0.0346407
1845.00	69.27	0.0346589
1849.10	69.21	0.0346617
1853.20	69.14	0.0346920
1857.30	69.07	0.0347161
1861.40	69.00	0.0347638
1865.50	68.93	0.0348108
1869.60	68.86	0.0348731
1873.70	68.80	0.0349274
1877.80	68.73	0.0349790
1881.90	68.66	0.0350323
1886.00	68.59	0.0350934
1890.10	68.52	0.0351761
1894.20	68.46	0.0352437
1898.30	68.39	0.0353151
1902.40	68.32	0.0353954
1906.50	68.25	0.0354661
1910.60	68.18	0.0355653
1914.70	68.11	0.0356496
1918.80	68.05	0.0357532
1922.90	67.98	0.0358731
1927.00	67.91	0.0359949
1931.10	67.84	0.0361593
1935.20	67.77	0.0363952
1939.30	67.71	0.0366556
1943.40	67.64	0.0368913
1947.50	67.57	0.0371259
1951.60	67.50	0.0373581
1955.70	67.43	0.0375634
1959.80	67.37	0.0377275
1963.90	67.30	0.0378857
1968.00	67.23	0.0380159
1972.10	67.16	0.0381581
1976.20	67.09	0.0383001
1980.30	67.02	0.0383795
1984.40	66.96	0.0384529
1988.50	66.89	0.0385096
1992.60	66.82	0.0385551
1996.70	66.75	0.0386021
2000.80	66.68	0.0386446
2004.90	66.61	0.0386669
2009.00	66.55	0.0386854
2013.10	66.48	0.0386969
2017.20	66.41	0.0387260
2021.30	66.34	0.0387499
2025.40	66.27	0.0387696
2029.50	66.20	0.0387806
2033.60	66.14	0.0387789
2037.70	66.07	0.0387963
2041.80	66.00	0.0388108
2045.90	65.93	0.0388308
2050.00	65.86	0.0388009
2054.10	65.80	0.0387929
2058.20	65.73	0.0387825
2062.30	65.66	0.0387653
2066.40	65.59	0.0387550
2070.50	65.52	0.0387474
2074.60	65.45	0.0387358
2078.70	65.39	0.0387324
2082.80	65.32	0.0387426
2086.90	65.25	0.0387424
2091.00	65.18	0.0387566
2095.10	65.11	0.0387448
2099.20	65.04	0.0387581
2103.30	64.98	0.0387537
2107.40	64.91	0.0387494
2111.50	64.84	0.0387377
2115.60	64.77	0.0387299
2119.70	64.70	0.0387244
2123.80	64.63	0.0387034
2127.90	64.56	0.0386863
2132.00	64.50	0.0386673
2136.10	64.43	0.0386471
2140.20	64.36	0.0386523
2144.30	64.29	0.0386535
2148.40	64.22	0.0386474
2152.50	64.15	0.0386356
2156.60	64.09	0.0386174
2160.70	64.02	0.0386143
2164.80	63.95	0.0386126
2168.90	63.88	0.0385987
2173.00	63.81	0.0385899
2177.10	63.75	0.0385795
2181.20	63.68	0.0385812
2185.30	63.61	0.0385806
2189.40	63.54	0.0385843
2193.50	63.47	0.0385892
2197.60	63.40	0.0386131
2201.70	63.34	0.0386062
2205.80	63.27	0.0385965
2209.90	63.20	0.0385861
2214.00	63.13	0.0385897
2218.10	63.06	0.0386082
2222.20	62.99	0.0385921
2226.30	62.93	0.0385930
2230.40	62.86	0.0385815
2234.50	62.79	0.0385808
2238.60	62.72	0.0386100
2242.70	62.65	0.0386222
2246.80	62.58	0.0386267
2250.90	62.52	0.0386390
2255.00	62.45	0.0386574
2259.10	62.38	0.0386738
2263.20	62.31	0.0386976
2267.30	62.24	0.0387062
2271.40	62.17	0.0386890
2275.50	62.11	0.0386993
2279.60	62.04	0.0386965
2283.70	61.97	0.0386981
2287.80	61.90	0.0387333
2291.90	61.83	0.0387399
2296.00	61.76	0.0387844
2300.10	61.70	0.0387900
2304.20	61.63	0.0388251
2308.30	61.56	0.0388748
2312.40	61.49	0.0389292
2316.50	61.42	0.0389749
2320.60	61.35	0.0390020
2324.70	61.29	0.0390363
2328.80	61.22	0.0390728
2332.90	61.15	0.0391102
2337.00	61.08	0.0391207
2341.10	61.01	0.0391442
2345.20	60.94	0.0391693
2349.30	60.88	0.0391932
2353.40	60.81	0.0392303
2357.50	60.74	0.0392804
2361.60	60.67	0.0393509
2365.70	60.60	0.0393948
2369.80	60.54	0.0394586
2373.90	60.47	0.0395065
2378.00	60.40	0.0395470
2382.10	60.33	0.0396107
2386.20	60.26	0.0396916
2390.30	60.20	0.0397832
2394.40	60.13	0.0398645
2398.50	60.06	0.0399688
2402.60	59.99	0.0400808
2406.70	59.92	0.0401930
2410.80	59.85	0.0403141
2414.90	59.79	0.0404464
2419.00	59.72	0.0405965
2423.10	59.65	0.0407526
2427.20	59.58	0.0409381
2431.30	59.51	0.0411346
2435.40	59.45	0.0414002
2439.50	59.38	0.0416767
2443.60	59.31	0.0419902
2447.70	59.24	0.0423282
2451.80	59.18	0.0430452
2455.90	59.13	0.0496461
2460.00	59.08	0.0697736
2464.10	59.03	0.0919437
2468.20	58.96	0.103666
2472.30	58.88	0.0965096
2476.40	58.80	0.0819409
2480.50	58.72	0.0681143
2484.60	58.64	0.0601357
2488.70	58.57	0.0571038
2492.80	58.50	0.0558992
2496.90	58.43	0.0541735
2501.00	58.36	0.0521474
2505.10	58.29	0.0502086
2509.20	58.22	0.0490360
2513.30	58.15	0.0479096
2517.40	58.08	0.0472434
2521.50	58.01	0.0465935
2525.60	57.94	0.0460198
2529.70	57.88	0.0455267
2533.80	57.81	0.0450861
2537.90	57.74	0.0447027
2542.00	57.67	0.0443989
2546.10	57.60	0.0441676
2550.20	57.53	0.0440110
2554.30	57.47	0.0439256
2558.40	57.40	0.0439805
2562.50	57.33	0.0443511
2566.60	57.26	0.0453091
2570.70	57.19	0.0456981
2574.80	57.13	0.0457907
2578.90	57.06	0.0454310
2583.00	56.99	0.0447200
2587.10	56.92	0.0436514
2591.20	56.85	0.0428747
2595.30	56.78	0.0421016
2599.40	56.71	0.0414194
2603.50	56.64	0.0408167
2607.60	56.57	0.0402498
2611.70	56.50	0.0397402
2615.80	56.43	0.0392762
2619.90	56.37	0.0388539
2624.00	56.30	0.0384507
2628.10	56.23	0.0381198
2632.20	56.16	0.0378252
2636.30	56.09	0.0375739
2640.40	56.02	0.0373611
2644.50	55.95	0.0371474
2648.60	55.89	0.0369537
2652.70	55.82	0.0367715
2656.80	55.75	0.0365786
2660.90	55.68	0.0364135
2665.00	55.61	0.0362736
2669.10	55.54	0.0361301
2673.20	55.47	0.0359967
2677.30	55.41	0.0358901
2681.40	55.34	0.0357968
2685.50	55.27	0.0357031
2689.60	55.20	0.0356241
2693.70	55.13	0.0355079
2697.80	55.06	0.0354102
2701.90	55.00	0.0353263
2706.00	54.93	0.0352517
2710.10	54.86	0.0351575
2714.20	54.79	0.0350659
2718.30	54.72	0.0349887
2722.40	54.65	0.0349205
2726.50	54.59	0.0348620
2730.60	54.52	0.0348017
2734.70	54.45	0.0347322
2738.80	54.38	0.0346698
2742.90	54.31	0.0346240
2747.00	54.24	0.0345772
2751.10	54.17	0.0345306
2755.20	54.11	0.0344784
2759.30	54.04	0.0344161
2763.40	53.97	0.0343788
2767.50	53.90	0.0343433
2771.60	53.83	0.0342949
2775.70	53.77	0.0342504
2779.80	53.70	0.0342031
2783.90	53.63	0.0341515
2788.00	53.56	0.0341056
2792.10	53.49	0.0340629
2796.20	53.42	0.0340056
2800.30	53.36	0.0339692
2804.40	53.29	0.0339163
2808.50	53.22	0.0338787
2812.60	53.15	0.0338575
2816.70	53.08	0.0338158
2820.80	53.01	0.0337458
2824.90	52.95	0.0337094
2829.00	52.88	0.0336780
2833.10	52.81	0.0336459
2837.20	52.74	0.0336168
2841.30	52.67	0.0335774
2845.40	52.60	0.0335549
2849.50	52.54	0.0335287
2853.60	52.47	0.0335014
2857.70	52.40	0.0334790
2861.80	52.33	0.0334385
2865.90	52.26	0.0334105
2870.00	52.19	0.0333869
2874.10	52.12	0.0333618
2878.20	52.06	0.0333639
2882.30	51.99	0.0333283
2886.40	51.92	0.0332757
2890.50	51.85	0.0332497
2894.60	51.78	0.0332102
2898.70	51.71	0.0331532
2902.80	51.65	0.0331160
2906.90	51.58	0.0330882
2911.00	51.51	0.0330595
2915.10	51.44	0.0330209
2919.20	51.37	0.0329878
2923.30	51.30	0.0329390
2927.40	51.24	0.0329272
2931.50	51.17	0.0329343
2935.60	51.10	0.0329244
2939.70	51.03	0.0329008
2943.80	50.96	0.0328764
2947.90	50.89	0.0328521
2952.00	50.83	0.0328260
2956.10	50.76	0.0328166
2960.20	50.69	0.0327805
2964.30	50.62	0.0327641
2968.40	50.55	0.0327085
2972.50	50.48	0.0326978
2976.60	50.42	0.0326869
2980.70	50.35	0.0326711
2984.80	50.28	0.0326684
2988.90	50.21	0.0326598
2993.00	50.14	0.0326350
2997.10	50.07	0.0326060
3001.20	50.01	0.0325819
3005.30	49.94	0.0325476
3009.40	49.87	0.0325170
3013.50	49.80	0.0325011
3017.60	49.73	0.0324701
3021.70	49.66	0.0324425
3025.80	49.60	0.0324046
3029.90	49.53	0.0323936
3034.00	49.46	0.0323844
3038.10	49.39	0.0323783
3042.20	49.32	0.0323575
3046.30	49.26	0.0323558
3050.40	49.19	0.0323485
3054.50	49.12	0.0323447
3058.60	49.05	0.0323300
3062.70	48.98	0.0323144
3066.80	48.91	0.0322972
3070.90	48.85	0.0322936
3075.00	48.78	0.0322563
3079.10	48.71	0.0322267
3083.20	48.64	0.0322244
3087.30	48.57	0.0322078
3091.40	48.50	0.0321926
3095.50	48.43	0.0321926
3099.60	48.37	0.0321702
3103.70	48.30	0.0321474
3107.80	48.23	0.0321241
3111.90	48.16	0.0321027
3116.00	48.09	0.0320961
3120.10	48.02	0.0320601
3124.20	47.96	0.0320345
3128.30	47.89	0.0320092
3132.40	47.82	0.0320157
3136.50	47.75	0.0320183
3140.60	47.68	0.0320392
3144.70	47.61	0.0320182
3148.80	47.55	0.0320057
3152.90	47.48	0.0319966
3157.00	47.41	0.0320225
3161.10	47.34	0.0319991
3165.20	47.27	0.0319725
3169.30	47.20	0.0319465
3173.40	47.13	0.0319059
3177.50	47.07	0.0318586
3181.60	47.00	0.0318337
3185.70	46.93	0.0318056
3189.80	46.86	0.0317763
3193.90	46.79	0.0317590
3198.00	46.73	0.0317128
3202.10	46.66	0.0316987
3206.20	46.59	0.0316706
3210.30	46.52	0.0316519
3214.40	46.45	0.0316245
3218.50	46.38	0.0316186
3222.60	46.32	0.0316084
3226.70	46.25	0.0316010
3230.80	46.18	0.0316028
3234.90	46.11	0.0316062
3239.00	46.04	0.0316145
3243.10	45.97	0.0316272
3247.20	45.91	0.0316346
3251.30	45.84	0.0316099
3255.40	45.77	0.0315870
3259.50	45.70	0.0315770
3263.60	45.63	0.0315645
3267.70	45.56	0.0315216
3271.80	45.49	0.0314998
3275.90	45.43	0.0314835
3280.00	45.36	0.0314733
3284.10	45.29	0.0314576
3288.20	45.22	0.0314476
3292.30	45.15	0.0314574
3296.40	45.08	0.0314593
3300.50	45.02	0.0314619
3304.60	44.95	0.0314519
3308.70	44.88	0.0314333
3312.80	44.81	0.0313937
3316.90	44.74	0.0313611
3321.00	44.68	0.0313262
3325.10	44.61	0.0313170
3329.20	44.54	0.0313044
3333.30	44.47	0.0313158
3337.40	44.40	0.0313050
3341.50	44.33	0.0313125
3345.60	44.27	0.0312885
3349.70	44.20	0.0312814
3353.80	44.13	0.0312707
3357.90	44.06	0.0312566
3362.00	43.99	0.0312581
3366.10	43.92	0.0312501
3370.20	43.86	0.0312429
3374.30	43.79	0.0312243
3378.40	43.72	0.0312069
3382.50	43.65	0.0311716
3386.60	43.58	0.0311800
3390.70	43.51	0.0311667
3394.80	43.45	0.0311401
3398.90	43.38	0.0311472
3403.00	43.31	0.0311128
3407.10	43.24	0.0310835
3411.20	43.17	0.0310749
3415.30	43.10	0.0310689
3419.40	43.04	0.0310562
3423.50	42.97	0.0310315
3427.60	42.90	0.0310240
3431.70	42.83	0.0310134
3435.80	42.76	0.0309865
3439.90	42.69	0.0310045
3444.00	42.62	0.0309955
3448.10	42.56	0.0309968
3452.20	42.49	0.0309889
3456.30	42.42	0.0309890
3460.40	42.35	0.0309712
3464.50	42.28	0.0309583
3468.60	42.21	0.0309279
3472.70	42.15	0.0309574
3476.80	42.08	0.0309554
3480.90	42.01	0.0309358
3485.00	41.94	0.0309025
3489.10	41.87	0.0308718
3493.20	41.81	0.0308523
3497.30	41.74	0.0308387
3501.40	41.67	0.0308330
3505.50	41.60	0.0308304
3509.60	41.53	0.0308285
3513.70	41.46	0.0308213
3517.80	41.40	0.0308043
3521.90	41.33	0.0307905
3526.00	41.26	0.0307694
3530.10	41.19	0.0307571
3534.20	41.12	0.0307658
3538.30	41.05	0.0307539
3542.40	40.99	0.0307553
3546.50	40.92	0.0307241
3550.60	40.85	0.0307139
3554.70	40.78	0.0307256
3558.80	40.71	0.0307237
3562.90	40.64	0.0307087
3567.00	40.58	0.0306956
3571.10	40.51	0.0306882
3575.20	40.44	0.0306799
3579.30	40.37	0.0306760
3583.40	40.30	0.0306662
3587.50	40.23	0.0306564
3591.60	40.17	0.0306351
3595.70	40.10	0.0306310
3599.80	40.03	0.0306243
3603.90	39.96	0.0306157
3608.00	39.89	0.0306012
3612.10	39.82	0.0305753
3616.20	39.76	0.0305490
3620.30	39.69	0.0305424
3624.40	39.62	0.0305466
3628.50	39.55	0.0305314
3632.60	39.48	0.0305359
3636.70	39.41	0.0304960
3640.80	39.34	0.0304911
3644.90	39.28	0.0304898
3649.00	39.21	0.0304871
3653.10	39.14	0.0304820
3657.20	39.07	0.0304865
3661.30	39.00	0.0304992
3665.40	38.93	0.0304918
3669.50	38.87	0.0304770
3673.60	38.80	0.0304707
3677.70	38.73	0.0304456
3681.80	38.66	0.0304284
3685.90	38.59	0.0304004
3690.00	38.52	0.0303907
3694.10	38.46	0.0303720
3698.20	38.39	0.0303695
3702.30	38.32	0.0303708
3706.40	38.25	0.0303451
3710.50	38.18	0.0303429
3714.60	38.11	0.0303389
3718.70	38.05	0.0303234
3722.80	37.98	0.0303123
3726.90	37.91	0.0303135
3731.00	37.84	0.0303063
3735.10	37.77	0.0302923
3739.20	37.70	0.0302853
3743.30	37.64	0.0302666
3747.40	37.57	0.0302668
3751.50	37.50	0.0302789
3755.60	37.43	0.0302580
3759.70	37.36	0.0302648
3763.80	37.29	0.0302371
3767.90	37.23	0.0302270
3772.00	37.16	0.0301981
3776.10	37.09	0.0301778
3780.20	37.02	0.0301602
3784.30	36.95	0.0301577
3788.40	36.89	0.0301461
3792.50	36.82	0.0301587
3796.60	36.75	0.0301679
3800.70	36.68	0.0301806
3804.80	36.61	0.0301875
3808.90	36.54	0.0301860
3813.00	36.47	0.0301638
3817.10	36.41	0.0301427
3821.20	36.34	0.0301259
3825.30	36.27	0.0301036
3829.40	36.20	0.0300858
3833.50	36.13	0.0300659
3837.60	36.07	0.0300731
3841.70	36.00	0.0300894
3845.80	35.93	0.0300948
3849.90	35.86	0.0300998
3854.00	35.79	0.0300945
3858.10	35.72	0.0300791
3862.20	35.65	0.0300479
3866.30	35.59	0.0300059
3870.40	35.52	0.0299682
3874.50	35.45	0.0299383
3878.60	35.38	0.0299698
3882.70	35.31	0.0299230
3886.80	35.25	0.0299252
3890.90	35.18	0.0299109
3895.00	35.11	0.0298894
3899.10	35.04	0.0298939
3903.20	34.97	0.0298941
3907.30	34.90	0.0298958
3911.40	34.83	0.0299067
3915.50	34.77	0.0298936
3919.60	34.70	0.0298761
3923.70	34.63	0.0298658
3927.80	34.56	0.0298676
3931.90	34.49	0.0298562
3936.00	34.42	0.0298669
3940.10	34.36	0.0298771
3944.20	34.29	0.0298594
3948.30	34.22	0.0298478
3952.40	34.15	0.0298158
3956.50	34.08	0.0298057
3960.60	34.01	0.0298196
3964.70	33.95	0.0298215
3968.80	33.88	0.0297981
3972.90	33.81	0.0297534
3977.00	33.74	0.0297261
3981.10	33.67	0.0297230
3985.20	33.61	0.0297074
3989.30	33.54	0.0296989
3993.40	33.47	0.0297064
3997.50	33.40	0.0297099
4001.60	33.33	0.0297094
4005.70	33.26	0.0296909
4009.80	33.19	0.0296812
4013.90	33.13	0.0296767
4018.00	33.06	0.0296685
4022.10	32.99	0.0296601
4026.20	32.92	0.0296433
4030.30	32.85	0.0296419
4034.40	32.78	0.0296453
4038.50	32.72	0.0296455
4042.60	32.65	0.0296455
4046.70	32.58	0.0296204
4050.80	32.51	0.0295979
4054.90	32.44	0.0295935
4059.00	32.38	0.0295750
4063.10	32.31	0.0295675
4067.20	32.24	0.0295551
4071.30	32.17	0.0295459
4075.40	32.10	0.0295520
4079.50	32.03	0.0295470
4083.60	31.97	0.0295594
4087.70	31.90	0.0295570
4091.80	31.83	0.0295510
4095.90	31.76	0.0295314
4100.00	31.69	0.0295303
4104.10	31.62	0.0295417
4108.20	31.55	0.0295326
4112.30	31.49	0.0295366
4116.40	31.42	0.0295192
4120.50	31.35	0.0295041
4124.60	31.28	0.0294741
4128.70	31.21	0.0294502
4132.80	31.15	0.0294454
4136.90	31.08	0.0294292
4141.00	31.01	0.0294245
4145.10	30.94	0.0294092
4149.20	30.87	0.0293916
4153.30	30.80	0.0293908
4157.40	30.74	0.0293824
4161.50	30.67	0.0293864
4165.60	30.60	0.0293792
4169.70	30.53	0.0293703
4173.80	30.46	0.0293667
4177.90	30.39	0.0293537
4182.00	30.33	0.0293610
4186.10	30.26	0.0293531
4190.20	30.19	0.0293490
4194.30	30.12	0.0293628
4198.40	30.05	0.0293555
4202.50	29.98	0.0293264
4206.60	29.92	0.0293211
4210.70	29.85	0.0292989
4214.80	29.78	0.0292844
4218.90	29.71	0.0292649
4223.00	29.64	0.0292509
4227.10	29.57	0.0292321
4231.20	29.51	0.0292382
4235.30	29.44	0.0292221
4239.40	29.37	0.0292207
4243.50	29.30	0.0292026
4247.60	29.23	0.0291894
4251.70	29.16	0.0291847
4255.80	29.10	0.0291662
4259.90	29.03	0.0291631
4264.00	28.96	0.0291784
4268.10	28.89	0.0291838
4272.20	28.82	0.0291900
4276.30	28.75	0.0291882
4280.40	28.69	0.0291870
4284.50	28.62	0.0291749
4288.60	28.55	0.0291640
4292.70	28.48	0.0291678
4296.80	28.41	0.0291777
4300.90	28.34	0.0291655
4305.00	28.27	0.0291561
4309.10	28.21	0.0291385
4313.20	28.14	0.0291173
4317.30	28.07	0.0291012
4321.40	28.00	0.0290987
4325.50	27.93	0.0290985
4329.60	27.86	0.0290905
4333.70	27.80	0.0290794
4337.80	27.73	0.0290821
4341.90	27.66	0.0290709
4346.00	27.59	0.0290456
4350.10	27.52	0.0290633
4354.20	27.45	0.0290348
4358.30	27.39	0.0290233
4362.40	27.32	0.0290084
4366.50	27.25	0.0289834
4370.60	27.18	0.0289777
4374.70	27.11	0.0289832
4378.80	27.04	0.0289889
4382.90	26.98	0.0289835
4387.00	26.91	0.0289878
4391.10	26.84	0.0289954
4395.20	26.77	0.0289849
4399.30	26.70	0.0289879
4403.40	26.63	0.0289990
4407.50	26.56	0.0289823
4411.60	26.50	0.0289809
4415.70	26.43	0.0289445
4419.80	26.36	0.0289310
4423.90	26.29	0.0289280
4428.00	26.22	0.0289157
4432.10	26.16	0.0288861
4436.20	26.09	0.0288646
4440.30	26.02	0.0288453
4444.40	25.95	0.0288476
4448.50	25.88	0.0288425
4452.60	25.81	0.0288471
4456.70	25.75	0.0288449
4460.80	25.68	0.0288428
4464.90	25.61	0.0288308
4469.00	25.54	0.0288192
4473.10	25.47	0.0288260
4477.20	25.40	0.0288200
4481.30	25.34	0.0288170
4485.40	25.27	0.0288369
4489.50	25.20	0.0288656
4493.60	25.13	0.0290429
4497.70	25.07	0.0301565
4501.80	25.01	0.0360176
4505.90	24.95	0.0448909
4510.00	24.90	0.0572705
4514.10	24.86	0.0731416
4518.20	24.83	0.0963235
4522.30	24.81	0.130482
4526.40	24.80	0.176760
4530.50	24.79	0.224975
4534.60	24.81	0.282136
4538.70	24.84	0.354438
4542.80	24.90	0.445518
4546.90	24.99	0.562702
4551.00	25.11	0.706048
4555.10	25.27	0.875584
4559.20	25.46	1.09077
4563.30	25.59	1.28590
4567.40	25.65	1.42382
4571.50	25.62	1.47995
4575.60	25.54	1.48819
4579.70	25.39	1.44926
4583.80	25.18	1.34783
4587.90	24.92	1.20436
4592.00	24.65	1.04375
4596.10	24.37	0.875790
4600.20	24.11	0.704389
4604.30	23.88	0.559503
4608.40	23.69	0.449150
4612.50	23.52	0.358014
4616.60	23.37	0.294845
4620.70	23.22	0.226206
4624.80	23.09	0.164030
4628.90	22.97	0.119944
4633.00	22.88	0.0910249
4637.10	22.79	0.0741744
4641.20	22.71	0.0620884
4645.30	22.64	0.0558060
4649.40	22.57	0.0540309
4653.50	22.49	0.0516570
4657.60	22.42	0.0479783
4661.70	22.34	0.0442787
4665.80	22.27	0.0365808
4669.90	22.20	0.0323768
4674.00	22.13	0.0301495
4678.10	22.06	0.0286398
4682.20	21.99	0.0283896
4686.30	21.92	0.0281576
4690.40	21.85	0.0279566
4694.50	21.78	0.0278783
4698.60	21.71	0.0277766
4702.70	21.64	0.0276063
4706.80	21.58	0.0273867
4710.90	21.51	0.0271509
4715.00	21.44	0.0268942
4719.10	21.37	0.0265634
4723.20	21.30	0.0262558
4727.30	21.23	0.0260808
4731.40	21.17	0.0260965
4735.50	21.10	0.0262019
4739.60	21.03	0.0262045
4743.70	20.96	0.0264896
4747.80	20.89	0.0265636
4751.90	20.82	0.0264274
4756.00	20.75	0.0262750
4760.10	20.69	0.0261821
4764.20	20.62	0.0259855
4768.30	20.55	0.0255277
4772.40	20.48	0.0252839
4776.50	20.41	0.0250820
4780.60	20.34	0.0248523
4784.70	20.27	0.0245505
4788.80	20.21	0.0242069
4792.90	20.14	0.0238932
4797.00	20.07	0.0236132
4801.10	20.00	0.0233504
4805.20	19.93	0.0231314
4809.30	19.86	0.0229457
4813.40	19.79	0.0228031
4817.50	19.73	0.0226479
4821.60	19.66	0.0225287
4825.70	19.59	0.0224410
4829.80	19.52	0.0223965
4833.90	19.45	0.0224142
4838.00	19.38	0.0224529
4842.10	19.32	0.0224442
4846.20	19.25	0.0224094
4850.30	19.18	0.0223452
4854.40	19.11	0.0222682
4858.50	19.04	0.0222172
4862.60	18.97	0.0221668
4866.70	18.91	0.0221385
4870.80	18.84	0.0221064
4874.90	18.77	0.0220763
4879.00	18.70	0.0220409
4883.10	18.63	0.0219902
4887.20	18.56	0.0219440
4891.30	18.50	0.0218992
4895.40	18.43	0.0218815
4899.50	18.36	0.0218638
4903.60	18.29	0.0218318
4907.70	18.22	0.0218247
4911.80	18.15	0.0218149
4915.90	18.09	0.0217999
4920.00	18.02	0.0217704
4924.10	17.95	0.0217387
4928.20	17.88	0.0217200
4932.30	17.81	0.0217004
4936.40	17.74	0.0217011
4940.50	17.68	0.0216801
4944.60	17.61	0.0216726
4948.70	17.54	0.0216838
4952.80	17.47	0.0216709
4956.90	17.40	0.0216608
4961.00	17.33	0.0216268
4965.10	17.27	0.0216033
4969.20	17.20	0.0215900
4973.30	17.13	0.0215801
4977.40	17.06	0.0215788
4981.50	16.99	0.0215807
4985.60	16.92	0.0215711
4989.70	16.86	0.0215750
4993.80	16.79	0.0215809
4997.90	16.72	0.0215890
5002.00	16.65	0.0215783
5006.10	16.58	0.0215660
5010.20	16.51	0.0215468
5014.30	16.45	0.0215420
5018.40	16.38	0.0215395
5022.50	16.31	0.0215101
5026.60	16.24	0.0215162
5030.70	16.17	0.0215179
5034.80	16.10	0.0215085
5038.90	16.03	0.0214936
5043.00	15.97	0.0214583
5047.10	15.90	0.0214384
5051.20	15.83	0.0214162
5055.30	15.76	0.0214081
5059.40	15.70	0.0213815
5063.50	15.62	0.0213528
5067.60	15.56	0.0213261
5071.70	15.49	0.0213110
5075.80	15.42	0.0213038
5079.90	15.35	0.0212963
5084.00	15.28	0.0212859
5088.10	15.21	0.0212819
5092.20	15.15	0.0212625
5096.30	15.08	0.0212295
5100.40	15.01	0.0212117
5104.50	14.94	0.0212084
5108.60	14.87	0.0211892
5112.70	14.81	0.0211896
5116.80	14.74	0.0211689
5120.90	14.67	0.0211568
5125.00	14.60	0.0211496
5129.10	14.53	0.0211469
5133.20	14.46	0.0211526
5137.30	14.40	0.0211636
5141.40	14.33	0.0211711
5145.50	14.26	0.0211646
5149.60	14.19	0.0211613
5153.70	14.12	0.0211472
5157.80	14.05	0.0211344
5161.90	13.98	0.0211172
5166.00	13.92	0.0211041
5170.10	13.85	0.0210968
5174.20	13.78	0.0210773
5178.30	13.71	0.0210440
5182.40	13.64	0.0210104
5186.50	13.58	0.0210000
5190.60	13.51	0.0209855
5194.70	13.44	0.0209791
5198.80	13.37	0.0209624
5202.90	13.30	0.0209412
5207.00	13.23	0.0209590
5211.10	13.17	0.0209089
5215.20	13.10	0.0209033
5219.30	13.03	0.0209007
5223.40	12.96	0.0208951
5227.50	12.89	0.0208624
5231.60	12.82	0.0208371
5235.70	12.76	0.0208203
5239.80	12.69	0.0208260
5243.90	12.62	0.0208081
5248.00	12.55	0.0208518
5252.10	12.48	0.0208655
5256.20	12.41	0.0208653
5260.30	12.35	0.0208319
5264.40	12.28	0.0208144
5268.50	12.21	0.0208072
5272.60	12.14	0.0207930
5276.70	12.07	0.0207835
5280.80	12.00	0.0207695
5284.90	11.93	0.0207542
5289.00	11.87	0.0207333
5293.10	11.80	0.0207433
5297.20	11.73	0.0207358
5301.30	11.66	0.0207240
5305.40	11.59	0.0207189
5309.50	11.52	0.0207198
5313.60	11.46	0.0206951
5317.70	11.39	0.0206676
5321.80	11.32	0.0206500
5325.90	11.25	0.0206308
5330.00	11.18	0.0206137
5334.10	11.11	0.0205927
5338.20	11.05	0.0205775
5342.30	10.98	0.0205690
5346.40	10.91	0.0205433
5350.50	10.84	0.0205228
5354.60	10.77	0.0205170
5358.70	10.71	0.0205063
5362.80	10.64	0.0204947
5366.90	10.57	0.0204964
5371.00	10.50	0.0205014
5375.10	10.43	0.0204883
5379.20	10.36	0.0204722
5383.30	10.29	0.0204477
5387.40	10.23	0.0204212
5391.50	10.16	0.0204216
5395.60	10.09	0.0204112
5399.70	10.02	0.0203995
5403.80	9.95	0.0203847
5407.90	9.88	0.0203671
5412.00	9.82	0.0203446
5416.10	9.75	0.0203219
5420.20	9.68	0.0202902
5424.30	9.61	0.0202734
5428.40	9.54	0.0202749
5432.50	9.48	0.0202687
5436.60	9.41	0.0202555
5440.70	9.34	0.0202814
5444.80	9.27	0.0202910
5448.90	9.20	0.0202814
5453.00	9.13	0.0202835
5457.10	9.07	0.0202714
5461.20	9.00	0.0202818
5465.30	8.93	0.0203137
5469.40	8.86	0.0202994
5473.50	8.79	0.0202815
5477.60	8.72	0.0202636
5481.70	8.65	0.0202449
5485.80	8.59	0.0202390
5489.90	8.52	0.0202361
5494.00	8.45	0.0202029
5498.10	8.38	0.0201867
5502.20	8.31	0.0201654
5506.30	8.24	0.0201518
5510.40	8.18	0.0201163
5514.50	8.11	0.0200901
5518.60	8.04	0.0200574
5522.70	7.97	0.0200414
5526.80	7.90	0.0200179
5530.90	7.83	0.0200190
5535.00	7.77	0.0199988
5539.10	7.70	0.0199794
5543.20	7.63	0.0199783
5547.30	7.56	0.0199659
5551.40	7.49	0.0199526
5555.50	7.42	0.0199405
5559.60	7.36	0.0199489
5563.70	7.29	0.0199375
5567.80	7.22	0.0199205
5571.90	7.15	0.0199205
5576.00	7.08	0.0199105
5580.10	7.01	0.0199106
5584.20	6.95	0.0198978
5588.30	6.88	0.0198981
5592.40	6.81	0.0198668
5596.50	6.74	0.0198455
5600.60	6.67	0.0198397
5604.70	6.60	0.0198218
5608.80	6.54	0.0198084
5612.90	6.47	0.0197743
5617.00	6.40	0.0197699
5621.10	6.33	0.0197452
5625.20	6.26	0.0197285
5629.30	6.19	0.0197338
5633.40	6.13	0.0197254
5637.50	6.06	0.0197133
5641.60	5.99	0.0197188
5645.70	5.92	0.0197167
5649.80	5.85	0.0197166
5653.90	5.79	0.0197150
5658.00	5.72	0.0197176
5662.10	5.65	0.0197227
5666.20	5.58	0.0197204
5670.30	5.51	0.0197232
5674.40	5.44	0.0197133
5678.50	5.37	0.0197123
5682.60	5.31	0.0197029
5686.70	5.24	0.0196978
5690.80	5.17	0.0196863
5694.90	5.10	0.0196767
5699.00	5.03	0.0196767
5703.10	4.96	0.0196598
5707.20	4.90	0.0196455
5711.30	4.83	0.0196266
5715.40	4.76	0.0196219
5719.50	4.69	0.0196112
5723.60	4.62	0.0195974
5727.70	4.55	0.0195646
5731.80	4.49	0.0195493
5735.90	4.42	0.0195331
5740.00	4.35	0.0195138
5744.10	4.28	0.0195015
5748.20	4.21	0.0194771
5752.30	4.14	0.0194702
5756.40	4.08	0.0194717
5760.50	4.01	0.0194532
5764.60	3.94	0.0194354
5768.70	3.87	0.0194350
5772.80	3.80	0.0194054
5776.90	3.73	0.0193897
5781.00	3.67	0.0193591
5785.10	3.60	0.0193690
5789.20	3.53	0.0193461
5793.30	3.46	0.0193551
5797.40	3.39	0.0193409
5801.50	3.32	0.0193419
5805.60	3.26	0.0193281
5809.70	3.19	0.0193310
5813.80	3.12	0.0193274
5817.90	3.05	0.0193276
5822.00	2.98	0.0193030
5826.10	2.91	0.0193172
5830.20	2.85	0.0193127
5834.30	2.78	0.0193202
5838.40	2.71	0.0193089
5842.50	2.64	0.0193165
5846.60	2.57	0.0193263
5850.70	2.50	0.0193317
5854.80	2.44	0.0193216
5858.90	2.37	0.0193118
5863.00	2.30	0.0192916
5867.10	2.23	0.0192897
5871.20	2.16	0.0192900
5875.30	2.09	0.0192713
5879.40	2.02	0.0192506
5883.50	1.96	0.0192371
5887.60	1.89	0.0192196
5891.70	1.82	0.0192081
5895.80	1.75	0.0192114
5899.90	1.68	0.0192059
5904.00	1.62	0.0192124
5908.10	1.55	0.0191976
5912.20	1.48	0.0191900
5916.30	1.41	0.0191721
5920.40	1.34	0.0191677
5924.50	1.28	0.0191662
5928.60	1.21	0.0191391
5932.70	1.14	0.0191355
5936.80	1.07	0.0191483
5940.90	1.00	0.0191230
5945.00	0.93	0.0191301
5949.10	0.87	0.0191225
5953.20	0.80	0.0191030
5957.30	0.73	0.0190932
5961.40	0.66	0.0190759
5965.50	0.59	0.0190660
5969.60	0.52	0.0190649
5973.70	0.45	0.0190649
5977.80	0.39	0.0190681
5981.90	0.32	0.0190607
5986.00	0.25	0.0190584
5990.10	0.18	0.0190462
5994.20	0.11	0.0190503
5998.30	0.04	0.0190377
6000.00	0.02	0.0190284