File: Differential scanning calorimetry/8OCB Squalane/8OCB SqA  wt fraction  000.txt
Filename	8OCBSA000
Instrument name	DSC2A-00101 (192.168.10.4)
Operator	Yuma
rundate	5/27/2021
Sample name	8OCBSA000
proceduresegments	Data Off ; Equilibrate 150.00 °C; Isothermal 10.0 min; Equilibrate 100.00 °C; Isothermal 5.0 min; Data On ; Ramp 1.00 °C/min to 0.00 °C; Ramp 5.00 °C/min to 150.00 °C; Data Off ; Isothermal 10.0 min; Modulate Temperature 1.00 °C for 60.0 s; Equilibrate 100.00 °C; Isothermal 10.0 min; Data On ; Ramp 1.00 °C/min to 0.00 °C; Ramp 3.00 °C/min to 100.00 °C; Jump 30.00 °C
[step]
Ramp 1.00 °C/min to 0.00 °C
Time	Temperature	Heat Flow (Normalized)
s	°C	W/g
0.00000	99.84	1.42665e-3
4.10000	99.84	1.70481e-3
8.20000	99.81	3.94695e-4
12.3000	99.76	6.62229e-5
16.4000	99.70	8.20900e-3
20.5000	99.64	0.0146428
24.6000	99.57	0.0191816
28.7000	99.51	0.0208594
32.8000	99.44	0.0222057
36.9000	99.37	0.0234964
41.0000	99.31	0.0245449
45.1000	99.24	0.0254374
49.2000	99.17	0.0261192
53.3000	99.10	0.0266838
57.4000	99.03	0.0271009
61.5000	98.97	0.0274681
65.6000	98.90	0.0276728
69.7000	98.83	0.0278355
73.8000	98.76	0.0279841
77.9000	98.69	0.0280797
82.0000	98.62	0.0281203
86.1000	98.55	0.0281605
90.2000	98.49	0.0281945
94.3000	98.42	0.0282791
98.4000	98.35	0.0283029
102.500	98.28	0.0283259
106.600	98.21	0.0283131
110.700	98.15	0.0282446
114.800	98.08	0.0282020
118.900	98.01	0.0281575
123.000	97.94	0.0281602
127.100	97.87	0.0281709
131.200	97.81	0.0281873
135.300	97.74	0.0282303
139.400	97.67	0.0282312
143.500	97.60	0.0281936
147.600	97.53	0.0282024
151.700	97.46	0.0282270
155.800	97.39	0.0282631
159.900	97.33	0.0282449
164.000	97.26	0.0282253
168.100	97.19	0.0282068
172.200	97.12	0.0282142
176.300	97.05	0.0281903
180.400	96.98	0.0281630
184.500	96.92	0.0281881
188.600	96.85	0.0281608
192.700	96.78	0.0281425
196.800	96.71	0.0281230
200.900	96.64	0.0280835
205.000	96.57	0.0280879
209.100	96.51	0.0280825
213.200	96.44	0.0280390
217.300	96.37	0.0280492
221.400	96.30	0.0280367
225.500	96.23	0.0280612
229.600	96.16	0.0280471
233.700	96.10	0.0280719
237.800	96.03	0.0281512
241.900	95.96	0.0281175
246.000	95.89	0.0281042
250.100	95.82	0.0280993
254.200	95.76	0.0280825
258.300	95.69	0.0280541
262.400	95.62	0.0280530
266.500	95.55	0.0280246
270.600	95.48	0.0280276
274.700	95.41	0.0279770
278.800	95.35	0.0279837
282.900	95.28	0.0279879
287.000	95.21	0.0280192
291.100	95.14	0.0280428
295.200	95.07	0.0280033
299.300	95.00	0.0279947
303.400	94.94	0.0279953
307.500	94.87	0.0279632
311.600	94.80	0.0279183
315.700	94.73	0.0278526
319.800	94.66	0.0278233
323.900	94.59	0.0278449
328.000	94.52	0.0278141
332.100	94.46	0.0278474
336.200	94.39	0.0278376
340.300	94.32	0.0278594
344.400	94.25	0.0278917
348.500	94.18	0.0279086
352.600	94.11	0.0278849
356.700	94.05	0.0278644
360.800	93.98	0.0278507
364.900	93.91	0.0277759
369.000	93.84	0.0278072
373.100	93.77	0.0277711
377.200	93.70	0.0277442
381.300	93.64	0.0277289
385.400	93.57	0.0277337
389.500	93.50	0.0277113
393.600	93.43	0.0277705
397.700	93.36	0.0277236
401.800	93.29	0.0277315
405.900	93.23	0.0277626
410.000	93.16	0.0277300
414.100	93.09	0.0277179
418.200	93.02	0.0276912
422.300	92.95	0.0277259
426.400	92.88	0.0277191
430.500	92.82	0.0277484
434.600	92.75	0.0277814
438.700	92.68	0.0277455
442.800	92.61	0.0276971
446.900	92.54	0.0277065
451.000	92.48	0.0276935
455.100	92.41	0.0276566
459.200	92.34	0.0276419
463.300	92.27	0.0276369
467.400	92.20	0.0276842
471.500	92.13	0.0276706
475.600	92.07	0.0276883
479.700	92.00	0.0277545
483.800	91.93	0.0277532
487.900	91.86	0.0276774
492.000	91.79	0.0276884
496.100	91.72	0.0276650
500.200	91.65	0.0276351
504.300	91.59	0.0276231
508.400	91.52	0.0275962
512.500	91.45	0.0276169
516.600	91.38	0.0276075
520.700	91.31	0.0275608
524.800	91.24	0.0275353
528.900	91.18	0.0275101
533.000	91.11	0.0275283
537.100	91.04	0.0275291
541.200	90.97	0.0275353
545.300	90.90	0.0275780
549.400	90.84	0.0275596
553.500	90.77	0.0275855
557.600	90.70	0.0275799
561.700	90.63	0.0275496
565.800	90.56	0.0275310
569.900	90.49	0.0275623
574.000	90.43	0.0276090
578.100	90.36	0.0275455
582.200	90.29	0.0275493
586.300	90.22	0.0275621
590.400	90.15	0.0275626
594.500	90.08	0.0275749
598.600	90.01	0.0276059
602.700	89.95	0.0276127
606.800	89.88	0.0275664
610.900	89.81	0.0275219
615.000	89.74	0.0275061
619.100	89.67	0.0275149
623.200	89.61	0.0275079
627.300	89.54	0.0274641
631.400	89.47	0.0274566
635.500	89.40	0.0274443
639.600	89.33	0.0274596
643.700	89.26	0.0274320
647.800	89.20	0.0274667
651.900	89.13	0.0274812
656.000	89.06	0.0274759
660.100	88.99	0.0274889
664.200	88.92	0.0274746
668.300	88.85	0.0274821
672.400	88.79	0.0274357
676.500	88.72	0.0274401
680.600	88.65	0.0273950
684.700	88.58	0.0274196
688.800	88.51	0.0274295
692.900	88.44	0.0274281
697.000	88.38	0.0274183
701.100	88.31	0.0273986
705.200	88.24	0.0273438
709.300	88.17	0.0273828
713.400	88.10	0.0273446
717.500	88.03	0.0273603
721.600	87.97	0.0273309
725.700	87.90	0.0273301
729.800	87.83	0.0273212
733.900	87.76	0.0273141
738.000	87.69	0.0273425
742.100	87.62	0.0273408
746.200	87.56	0.0273477
750.300	87.49	0.0273576
754.400	87.42	0.0274077
758.500	87.35	0.0273749
762.600	87.28	0.0273635
766.700	87.21	0.0273728
770.800	87.15	0.0273129
774.900	87.08	0.0273238
779.000	87.01	0.0273294
783.100	86.94	0.0273386
787.200	86.87	0.0272947
791.300	86.80	0.0272772
795.400	86.74	0.0272725
799.500	86.67	0.0272478
803.600	86.60	0.0272560
807.700	86.53	0.0272453
811.800	86.46	0.0272565
815.900	86.39	0.0273096
820.000	86.33	0.0272718
824.100	86.26	0.0272121
828.200	86.19	0.0272206
832.300	86.12	0.0272261
836.400	86.05	0.0272565
840.500	85.98	0.0272606
844.600	85.92	0.0272602
848.700	85.85	0.0272994
852.800	85.78	0.0272970
856.900	85.71	0.0273236
861.000	85.64	0.0272539
865.100	85.57	0.0272821
869.200	85.51	0.0273032
873.300	85.44	0.0272838
877.400	85.37	0.0272777
881.500	85.30	0.0272677
885.600	85.23	0.0272276
889.700	85.16	0.0272322
893.800	85.10	0.0272923
897.900	85.03	0.0272564
902.000	84.96	0.0272741
906.100	84.89	0.0273107
910.200	84.82	0.0272824
914.300	84.75	0.0273125
918.400	84.68	0.0273047
922.500	84.62	0.0273309
926.600	84.55	0.0273390
930.700	84.48	0.0273612
934.800	84.41	0.0273564
938.900	84.34	0.0273349
943.000	84.28	0.0273673
947.100	84.21	0.0274000
951.200	84.14	0.0273369
955.300	84.07	0.0273055
959.400	84.00	0.0273084
963.500	83.93	0.0273216
967.600	83.87	0.0273408
971.700	83.80	0.0273463
975.800	83.73	0.0273402
979.900	83.66	0.0273488
984.000	83.59	0.0273288
988.100	83.52	0.0273084
992.200	83.46	0.0273457
996.300	83.39	0.0273866
1000.40	83.32	0.0273548
1004.50	83.25	0.0273667
1008.60	83.18	0.0273684
1012.70	83.12	0.0273264
1016.80	83.05	0.0273390
1020.90	82.98	0.0272838
1025.00	82.91	0.0273384
1029.10	82.84	0.0273696
1033.20	82.77	0.0274094
1037.30	82.70	0.0274928
1041.40	82.64	0.0275014
1045.50	82.57	0.0275414
1049.60	82.50	0.0275597
1053.70	82.43	0.0276117
1057.80	82.36	0.0275988
1061.90	82.29	0.0276028
1066.00	82.23	0.0276131
1070.10	82.16	0.0276240
1074.20	82.09	0.0276564
1078.30	82.02	0.0276616
1082.40	81.95	0.0276662
1086.50	81.88	0.0277101
1090.60	81.82	0.0277332
1094.70	81.75	0.0277608
1098.80	81.68	0.0277964
1102.90	81.61	0.0278326
1107.00	81.54	0.0277944
1111.10	81.47	0.0278530
1115.20	81.41	0.0278862
1119.30	81.34	0.0279056
1123.40	81.27	0.0279598
1127.50	81.20	0.0279643
1131.60	81.13	0.0279952
1135.70	81.07	0.0280156
1139.80	81.00	0.0280344
1143.90	80.93	0.0281318
1148.00	80.86	0.0281489
1152.10	80.79	0.0282051
1156.20	80.72	0.0282852
1160.30	80.66	0.0283106
1164.40	80.59	0.0283631
1168.50	80.52	0.0283954
1172.60	80.45	0.0284674
1176.70	80.38	0.0285500
1180.80	80.31	0.0285843
1184.90	80.25	0.0286755
1189.00	80.18	0.0287601
1193.10	80.11	0.0288423
1197.20	80.04	0.0289312
1201.30	79.97	0.0290698
1205.40	79.90	0.0292111
1209.50	79.84	0.0293497
1213.60	79.77	0.0295425
1217.70	79.70	0.0297528
1221.80	79.63	0.0299851
1225.90	79.56	0.0302571
1230.00	79.50	0.0305266
1234.10	79.43	-0.0201528
1238.20	79.39	0.107806
1242.30	79.33	0.151117
1246.40	79.25	0.142679
1250.50	79.17	0.0992151
1254.60	79.10	0.0744663
1258.70	79.03	0.0613723
1262.80	78.95	0.0535503
1266.90	78.89	0.0495471
1271.00	78.81	0.0471776
1275.10	78.75	0.0456588
1279.20	78.68	0.0441316
1283.30	78.61	0.0428423
1287.40	78.54	0.0416657
1291.50	78.47	0.0406682
1295.60	78.40	0.0397410
1299.70	78.34	0.0389516
1303.80	78.27	0.0381894
1307.90	78.20	0.0375766
1312.00	78.13	0.0369743
1316.10	78.06	0.0364902
1320.20	77.99	0.0359777
1324.30	77.92	0.0355878
1328.40	77.86	0.0352015
1332.50	77.79	0.0348633
1336.60	77.72	0.0346044
1340.70	77.65	0.0343224
1344.80	77.58	0.0340487
1348.90	77.51	0.0337920
1353.00	77.45	0.0335629
1357.10	77.38	0.0333849
1361.20	77.31	0.0332060
1365.30	77.24	0.0330484
1369.40	77.17	0.0328239
1373.50	77.10	0.0326456
1377.60	77.04	0.0324964
1381.70	76.97	0.0323461
1385.80	76.90	0.0321851
1389.90	76.83	0.0319837
1394.00	76.76	0.0318505
1398.10	76.69	0.0316910
1402.20	76.62	0.0315854
1406.30	76.56	0.0314614
1410.40	76.49	0.0313848
1414.50	76.42	0.0312321
1418.60	76.35	0.0310878
1422.70	76.28	0.0310310
1426.80	76.22	0.0309313
1430.90	76.15	0.0308294
1435.00	76.08	0.0307130
1439.10	76.01	0.0306540
1443.20	75.94	0.0305332
1447.30	75.87	0.0304588
1451.40	75.81	0.0304004
1455.50	75.74	0.0303623
1459.60	75.67	0.0303317
1463.70	75.60	0.0301693
1467.80	75.53	0.0300757
1471.90	75.46	0.0299855
1476.00	75.40	0.0299205
1480.10	75.33	0.0298546
1484.20	75.26	0.0297941
1488.30	75.19	0.0297129
1492.40	75.12	0.0296045
1496.50	75.05	0.0295415
1500.60	74.99	0.0294477
1504.70	74.92	0.0293908
1508.80	74.85	0.0293826
1512.90	74.78	0.0293382
1517.00	74.71	0.0292696
1521.10	74.64	0.0292308
1525.20	74.58	0.0291934
1529.30	74.51	0.0291249
1533.40	74.44	0.0290475
1537.50	74.37	0.0289483
1541.60	74.30	0.0289326
1545.70	74.23	0.0289140
1549.80	74.17	0.0288384
1553.90	74.10	0.0288328
1558.00	74.03	0.0287375
1562.10	73.96	0.0286670
1566.20	73.89	0.0286738
1570.30	73.82	0.0286420
1574.40	73.75	0.0285840
1578.50	73.69	0.0284858
1582.60	73.62	0.0284599
1586.70	73.55	0.0283811
1590.80	73.48	0.0284031
1594.90	73.41	0.0283472
1599.00	73.34	0.0282811
1603.10	73.28	0.0282294
1607.20	73.21	0.0281948
1611.30	73.14	0.0281410
1615.40	73.07	0.0281183
1619.50	73.00	0.0280985
1623.60	72.93	0.0280505
1627.70	72.87	0.0280140
1631.80	72.80	0.0280127
1635.90	72.73	0.0279404
1640.00	72.66	0.0279303
1644.10	72.59	0.0278920
1648.20	72.52	0.0278218
1652.30	72.46	0.0278077
1656.40	72.39	0.0277663
1660.50	72.32	0.0277393
1664.60	72.25	0.0276705
1668.70	72.18	0.0276219
1672.80	72.11	0.0275936
1676.90	72.05	0.0275545
1681.00	71.98	0.0275270
1685.10	71.91	0.0275015
1689.20	71.84	0.0274464
1693.30	71.77	0.0274103
1697.40	71.70	0.0273404
1701.50	71.64	0.0272589
1705.60	71.57	0.0271941
1709.70	71.50	0.0272270
1713.80	71.43	0.0271959
1717.90	71.36	0.0271493
1722.00	71.29	0.0270832
1726.10	71.23	0.0270680
1730.20	71.16	0.0270092
1734.30	71.09	0.0270418
1738.40	71.02	0.0270081
1742.50	70.95	0.0270088
1746.60	70.88	0.0269585
1750.70	70.82	0.0269434
1754.80	70.75	0.0269341
1758.90	70.68	0.0268784
1763.00	70.61	0.0268590
1767.10	70.54	0.0268437
1771.20	70.47	0.0267848
1775.30	70.41	0.0267815
1779.40	70.34	0.0267652
1783.50	70.27	0.0267649
1787.60	70.20	0.0267138
1791.70	70.13	0.0266584
1795.80	70.07	0.0266162
1799.90	70.00	0.0265832
1804.00	69.93	0.0265460
1808.10	69.86	0.0265306
1812.20	69.79	0.0264934
1816.30	69.72	0.0265125
1820.40	69.66	0.0264938
1824.50	69.59	0.0264901
1828.60	69.52	0.0264526
1832.70	69.45	0.0264792
1836.80	69.38	0.0264309
1840.90	69.31	0.0263654
1845.00	69.24	0.0263264
1849.10	69.18	0.0262936
1853.20	69.11	0.0262807
1857.30	69.04	0.0262468
1861.40	68.97	0.0262315
1865.50	68.90	0.0262041
1869.60	68.84	0.0261756
1873.70	68.77	0.0261947
1877.80	68.70	0.0261163
1881.90	68.63	0.0261413
1886.00	68.56	0.0261517
1890.10	68.49	0.0261147
1894.20	68.42	0.0260855
1898.30	68.36	0.0260565
1902.40	68.29	0.0260241
1906.50	68.22	0.0260513
1910.60	68.15	0.0260259
1914.70	68.08	0.0260275
1918.80	68.01	0.0260140
1922.90	67.95	0.0259835
1927.00	67.88	0.0259105
1931.10	67.81	0.0259283
1935.20	67.74	0.0259120
1939.30	67.67	0.0259279
1943.40	67.60	0.0259051
1947.50	67.54	0.0258753
1951.60	67.47	0.0258777
1955.70	67.40	0.0258657
1959.80	67.33	0.0259018
1963.90	67.26	0.0258926
1968.00	67.20	0.0258956
1972.10	67.13	0.0258848
1976.20	67.06	0.0258615
1980.30	66.99	0.0259066
1984.40	66.92	0.0259297
1988.50	66.85	0.0259604
1992.60	66.79	0.0259982
1996.70	66.72	0.0260444
2000.80	66.65	0.0260375
2004.90	66.58	0.0261164
2009.00	66.51	0.0261793
2013.10	66.44	0.0262465
2017.20	66.38	0.0263400
2021.30	66.31	0.0264114
2025.40	66.24	0.0265310
2029.50	66.17	0.0267889
2033.60	66.10	0.0273747
2037.70	66.03	0.0277173
2041.80	65.96	0.0277638
2045.90	65.90	0.0277037
2050.00	65.83	0.0275184
2054.10	65.76	0.0272763
2058.20	65.69	0.0270468
2062.30	65.62	0.0268055
2066.40	65.55	0.0265979
2070.50	65.49	0.0263982
2074.60	65.42	0.0262397
2078.70	65.35	0.0261060
2082.80	65.28	0.0259964
2086.90	65.21	0.0258737
2091.00	65.14	0.0257558
2095.10	65.08	0.0256494
2099.20	65.01	0.0255573
2103.30	64.94	0.0254635
2107.40	64.87	0.0253836
2111.50	64.80	0.0252697
2115.60	64.73	0.0251887
2119.70	64.67	0.0251052
2123.80	64.60	0.0250690
2127.90	64.53	0.0249652
2132.00	64.46	0.0248631
2136.10	64.39	0.0247823
2140.20	64.33	0.0247357
2144.30	64.26	0.0246563
2148.40	64.19	0.0246272
2152.50	64.12	0.0245474
2156.60	64.05	0.0245423
2160.70	63.98	0.0244460
2164.80	63.91	0.0243937
2168.90	63.85	0.0243201
2173.00	63.78	0.0242844
2177.10	63.71	0.0242466
2181.20	63.64	0.0242277
2185.30	63.57	0.0241435
2189.40	63.51	0.0240995
2193.50	63.44	0.0240722
2197.60	63.37	0.0240520
2201.70	63.30	0.0240164
2205.80	63.23	0.0239944
2209.90	63.16	0.0239622
2214.00	63.10	0.0239005
2218.10	63.03	0.0238704
2222.20	62.96	0.0238124
2226.30	62.89	0.0237934
2230.40	62.82	0.0238069
2234.50	62.75	0.0237723
2238.60	62.68	0.0237313
2242.70	62.62	0.0236497
2246.80	62.55	0.0236363
2250.90	62.48	0.0236329
2255.00	62.41	0.0235574
2259.10	62.34	0.0235497
2263.20	62.27	0.0234641
2267.30	62.21	0.0234695
2271.40	62.14	0.0234308
2275.50	62.07	0.0233783
2279.60	62.00	0.0233567
2283.70	61.93	0.0233436
2287.80	61.87	0.0232964
2291.90	61.80	0.0232129
2296.00	61.73	0.0232167
2300.10	61.66	0.0231884
2304.20	61.59	0.0231736
2308.30	61.52	0.0231610
2312.40	61.45	0.0231114
2316.50	61.39	0.0231324
2320.60	61.32	0.0230943
2324.70	61.25	0.0231209
2328.80	61.18	0.0230900
2332.90	61.11	0.0230845
2337.00	61.05	0.0230409
2341.10	60.98	0.0230416
2345.20	60.91	0.0230071
2349.30	60.84	0.0229975
2353.40	60.77	0.0229554
2357.50	60.70	0.0228926
2361.60	60.63	0.0228821
2365.70	60.57	0.0228549
2369.80	60.50	0.0228485
2373.90	60.43	0.0228027
2378.00	60.36	0.0228178
2382.10	60.29	0.0227939
2386.20	60.22	0.0227370
2390.30	60.16	0.0227871
2394.40	60.09	0.0227663
2398.50	60.02	0.0227176
2402.60	59.95	0.0226556
2406.70	59.88	0.0226341
2410.80	59.81	0.0226474
2414.90	59.75	0.0226533
2419.00	59.68	0.0226227
2423.10	59.61	0.0226055
2427.20	59.54	0.0225647
2431.30	59.47	0.0225497
2435.40	59.41	0.0225114
2439.50	59.34	0.0224802
2443.60	59.27	0.0225069
2447.70	59.20	0.0224141
2451.80	59.13	0.0223982
2455.90	59.06	0.0224138
2460.00	58.99	0.0223377
2464.10	58.93	0.0223582
2468.20	58.86	0.0223049
2472.30	58.79	0.0223250
2476.40	58.72	0.0222747
2480.50	58.65	0.0222391
2484.60	58.58	0.0221899
2488.70	58.52	0.0222052
2492.80	58.45	0.0221572
2496.90	58.38	0.0221597
2501.00	58.31	0.0221350
2505.10	58.24	0.0220963
2509.20	58.17	0.0221103
2513.30	58.11	0.0221062
2517.40	58.04	0.0220510
2521.50	57.97	0.0219751
2525.60	57.90	0.0219966
2529.70	57.83	0.0219797
2533.80	57.76	0.0219516
2537.90	57.70	0.0219296
2542.00	57.63	0.0219090
2546.10	57.56	0.0218891
2550.20	57.49	0.0218510
2554.30	57.42	0.0218172
2558.40	57.35	0.0217749
2562.50	57.29	0.0217740
2566.60	57.22	0.0217559
2570.70	57.15	0.0217672
2574.80	57.08	0.0217353
2578.90	57.01	0.0217110
2583.00	56.94	0.0217130
2587.10	56.88	0.0216954
2591.20	56.81	0.0216803
2595.30	56.74	0.0216118
2599.40	56.67	0.0215742
2603.50	56.60	0.0216101
2607.60	56.53	0.0216152
2611.70	56.47	0.0215597
2615.80	56.40	0.0215312
2619.90	56.33	0.0215261
2624.00	56.26	0.0215402
2628.10	56.19	0.0214804
2632.20	56.12	0.0214709
2636.30	56.06	0.0214619
2640.40	55.99	0.0214468
2644.50	55.92	0.0214040
2648.60	55.85	0.0213982
2652.70	55.78	0.0213915
2656.80	55.72	0.0213843
2660.90	55.65	0.0213820
2665.00	55.58	0.0213643
2669.10	55.51	0.0213422
2673.20	55.44	0.0213503
2677.30	55.37	0.0213166
2681.40	55.30	0.0213135
2685.50	55.24	0.0212951
2689.60	55.17	0.0212941
2693.70	55.10	0.0211799
2697.80	55.03	0.0211689
2701.90	54.96	0.0211503
2706.00	54.90	0.0211750
2710.10	54.83	0.0211174
2714.20	54.76	0.0210959
2718.30	54.69	0.0211076
2722.40	54.62	0.0210663
2726.50	54.55	0.0210392
2730.60	54.48	0.0210270
2734.70	54.41	0.0210240
2738.80	54.35	0.0210326
2742.90	54.28	0.0209740
2747.00	54.21	0.0209411
2751.10	54.14	0.0209565
2755.20	54.07	0.0209291
2759.30	54.01	0.0208760
2763.40	53.94	0.0208984
2767.50	53.87	0.0208241
2771.60	53.80	0.0208381
2775.70	53.73	0.0207929
2779.80	53.66	0.0207783
2783.90	53.60	0.0207970
2788.00	53.53	0.0207595
2792.10	53.46	0.0207413
2796.20	53.39	0.0207489
2800.30	53.32	0.0207597
2804.40	53.25	0.0206892
2808.50	53.19	0.0206377
2812.60	53.12	0.0206967
2816.70	53.05	0.0206345
2820.80	52.98	0.0206086
2824.90	52.91	0.0206527
2829.00	52.84	0.0205838
2833.10	52.78	0.0205907
2837.20	52.71	0.0205749
2841.30	52.64	0.0205872
2845.40	52.57	0.0205360
2849.50	52.50	0.0205357
2853.60	52.43	0.0205282
2857.70	52.37	0.0205263
2861.80	52.30	0.0205514
2865.90	52.23	0.0205482
2870.00	52.16	0.0205110
2874.10	52.09	0.0204852
2878.20	52.03	0.0204489
2882.30	51.96	0.0204194
2886.40	51.89	0.0204010
2890.50	51.82	0.0203631
2894.60	51.75	0.0203792
2898.70	51.68	0.0203421
2902.80	51.61	0.0203217
2906.90	51.55	0.0202774
2911.00	51.48	0.0202595
2915.10	51.41	0.0202399
2919.20	51.34	0.0202035
2923.30	51.27	0.0201660
2927.40	51.20	0.0201620
2931.50	51.14	0.0201308
2935.60	51.07	0.0201518
2939.70	51.00	0.0201256
2943.80	50.93	0.0201013
2947.90	50.86	0.0200724
2952.00	50.79	0.0200925
2956.10	50.73	0.0201219
2960.20	50.66	0.0200747
2964.30	50.59	0.0200766
2968.40	50.52	0.0200603
2972.50	50.45	0.0200590
2976.60	50.38	0.0200903
2980.70	50.32	0.0200111
2984.80	50.25	0.0200277
2988.90	50.18	0.0199817
2993.00	50.11	0.0199839
2997.10	50.04	0.0199614
3001.20	49.97	0.0199149
3005.30	49.91	0.0199427
3009.40	49.84	0.0198931
3013.50	49.77	0.0198632
3017.60	49.70	0.0198727
3021.70	49.63	0.0198681
3025.80	49.57	0.0198106
3029.90	49.50	0.0197975
3034.00	49.43	0.0197638
3038.10	49.36	0.0197519
3042.20	49.29	0.0197114
3046.30	49.22	0.0197152
3050.40	49.15	0.0197008
3054.50	49.09	0.0197199
3058.60	49.02	0.0196847
3062.70	48.95	0.0196360
3066.80	48.88	0.0196297
3070.90	48.81	0.0196160
3075.00	48.75	0.0196193
3079.10	48.68	0.0196430
3083.20	48.61	0.0195571
3087.30	48.54	0.0195921
3091.40	48.47	0.0195991
3095.50	48.40	0.0195678
3099.60	48.34	0.0195526
3103.70	48.27	0.0195457
3107.80	48.20	0.0194865
3111.90	48.13	0.0194935
3116.00	48.06	0.0194614
3120.10	47.99	0.0194400
3124.20	47.92	0.0194186
3128.30	47.86	0.0194377
3132.40	47.79	0.0194080
3136.50	47.72	0.0193696
3140.60	47.65	0.0193778
3144.70	47.58	0.0193884
3148.80	47.51	0.0193797
3152.90	47.45	0.0193351
3157.00	47.38	0.0193976
3161.10	47.31	0.0194324
3165.20	47.24	0.0194099
3169.30	47.17	0.0193113
3173.40	47.10	0.0193588
3177.50	47.04	0.0192988
3181.60	46.97	0.0192547
3185.70	46.90	0.0192015
3189.80	46.83	0.0192026
3193.90	46.76	0.0191831
3198.00	46.69	0.0191300
3202.10	46.63	0.0191489
3206.20	46.56	0.0191221
3210.30	46.49	0.0190812
3214.40	46.42	0.0190610
3218.50	46.35	0.0190758
3222.60	46.28	0.0190162
3226.70	46.22	0.0190630
3230.80	46.15	0.0189951
3234.90	46.08	0.0190141
3239.00	46.01	0.0190490
3243.10	45.94	0.0190606
3247.20	45.87	0.0190573
3251.30	45.81	0.0190368
3255.40	45.74	0.0190264
3259.50	45.67	0.0189831
3263.60	45.60	0.0189066
3267.70	45.53	0.0189031
3271.80	45.47	0.0188914
3275.90	45.40	0.0188998
3280.00	45.33	0.0189157
3284.10	45.26	0.0188877
3288.20	45.19	0.0188811
3292.30	45.12	0.0189119
3296.40	45.05	0.0188225
3300.50	44.99	0.0188423
3304.60	44.92	0.0188222
3308.70	44.85	0.0188026
3312.80	44.78	0.0187704
3316.90	44.71	0.0187574
3321.00	44.65	0.0187576
3325.10	44.58	0.0187449
3329.20	44.51	0.0187407
3333.30	44.44	0.0187401
3337.40	44.37	0.0187028
3341.50	44.30	0.0187180
3345.60	44.24	0.0186977
3349.70	44.17	0.0187060
3353.80	44.10	0.0186876
3357.90	44.03	0.0186883
3362.00	43.96	0.0186476
3366.10	43.89	0.0186390
3370.20	43.82	0.0185909
3374.30	43.76	0.0185809
3378.40	43.69	0.0185286
3382.50	43.62	0.0185367
3386.60	43.55	0.0185271
3390.70	43.48	0.0185092
3394.80	43.42	0.0185053
3398.90	43.35	0.0184971
3403.00	43.28	0.0184631
3407.10	43.21	0.0184469
3411.20	43.14	0.0184412
3415.30	43.07	0.0184628
3419.40	43.01	0.0184199
3423.50	42.94	0.0184404
3427.60	42.87	0.0183918
3431.70	42.80	0.0184314
3435.80	42.73	0.0184024
3439.90	42.66	0.0184138
3444.00	42.59	0.0183988
3448.10	42.53	0.0183997
3452.20	42.46	0.0183538
3456.30	42.39	0.0183407
3460.40	42.32	0.0183170
3464.50	42.25	0.0183138
3468.60	42.18	0.0182574
3472.70	42.12	0.0182668
3476.80	42.05	0.0182637
3480.90	41.98	0.0182249
3485.00	41.91	0.0182574
3489.10	41.84	0.0182019
3493.20	41.78	0.0181805
3497.30	41.71	0.0181360
3501.40	41.64	0.0181078
3505.50	41.57	0.0180766
3509.60	41.50	0.0180824
3513.70	41.43	0.0180477
3517.80	41.37	0.0180791
3521.90	41.30	0.0180617
3526.00	41.23	0.0180410
3530.10	41.16	0.0180240
3534.20	41.09	0.0180366
3538.30	41.02	0.0180519
3542.40	40.96	0.0180193
3546.50	40.89	0.0179805
3550.60	40.82	0.0179211
3554.70	40.75	0.0179271
3558.80	40.68	0.0179405
3562.90	40.61	0.0179125
3567.00	40.54	0.0179247
3571.10	40.48	0.0179440
3575.20	40.41	0.0179290
3579.30	40.34	0.0179032
3583.40	40.27	0.0178745
3587.50	40.20	0.0178555
3591.60	40.13	0.0178660
3595.70	40.07	0.0178283
3599.80	40.00	0.0178334
3603.90	39.93	0.0178264
3608.00	39.86	0.0177769
3612.10	39.79	0.0177422
3616.20	39.73	0.0177330
3620.30	39.66	0.0177330
3624.40	39.59	0.0177332
3628.50	39.52	0.0177292
3632.60	39.45	0.0177345
3636.70	39.38	0.0177411
3640.80	39.31	0.0176980
3644.90	39.25	0.0176629
3649.00	39.18	0.0176789
3653.10	39.11	0.0176392
3657.20	39.04	0.0176127
3661.30	38.97	0.0176129
3665.40	38.90	0.0176211
3669.50	38.84	0.0175721
3673.60	38.77	0.0176229
3677.70	38.70	0.0176137
3681.80	38.63	0.0175557
3685.90	38.56	0.0175187
3690.00	38.49	0.0175475
3694.10	38.43	0.0174871
3698.20	38.36	0.0175327
3702.30	38.29	0.0175100
3706.40	38.22	0.0174801
3710.50	38.15	0.0174000
3714.60	38.08	0.0174132
3718.70	38.02	0.0174234
3722.80	37.95	0.0174007
3726.90	37.88	0.0173940
3731.00	37.81	0.0173670
3735.10	37.74	0.0173381
3739.20	37.67	0.0173511
3743.30	37.61	0.0173446
3747.40	37.54	0.0173516
3751.50	37.47	0.0173273
3755.60	37.40	0.0173335
3759.70	37.33	0.0173404
3763.80	37.26	0.0173451
3767.90	37.20	0.0172995
3772.00	37.13	0.0173056
3776.10	37.06	0.0172880
3780.20	36.99	0.0172399
3784.30	36.92	0.0172096
3788.40	36.85	0.0171962
3792.50	36.79	0.0171866
3796.60	36.72	0.0171641
3800.70	36.65	0.0171588
3804.80	36.58	0.0171730
3808.90	36.51	0.0171646
3813.00	36.45	0.0171228
3817.10	36.38	0.0171208
3821.20	36.31	0.0171066
3825.30	36.24	0.0171017
3829.40	36.17	0.0170890
3833.50	36.10	0.0170541
3837.60	36.03	0.0170218
3841.70	35.97	0.0170030
3845.80	35.90	0.0170262
3849.90	35.83	0.0169752
3854.00	35.76	0.0169584
3858.10	35.69	0.0169681
3862.20	35.62	0.0169597
3866.30	35.56	0.0169656
3870.40	35.49	0.0169874
3874.50	35.42	0.0169840
3878.60	35.35	0.0169751
3882.70	35.28	0.0169182
3886.80	35.22	0.0168684
3890.90	35.15	0.0168500
3895.00	35.08	0.0168597
3899.10	35.01	0.0168350
3903.20	34.94	0.0168358
3907.30	34.87	0.0168352
3911.40	34.80	0.0167837
3915.50	34.74	0.0167651
3919.60	34.67	0.0167678
3923.70	34.60	0.0167598
3927.80	34.53	0.0166961
3931.90	34.46	0.0166960
3936.00	34.40	0.0166927
3940.10	34.33	0.0167014
3944.20	34.26	0.0167034
3948.30	34.19	0.0166742
3952.40	34.12	0.0166711
3956.50	34.05	0.0166529
3960.60	33.98	0.0166845
3964.70	33.92	0.0166536
3968.80	33.85	0.0166311
3972.90	33.78	0.0166186
3977.00	33.71	0.0165779
3981.10	33.64	0.0165677
3985.20	33.57	0.0165486
3989.30	33.51	0.0165299
3993.40	33.44	0.0165305
3997.50	33.37	0.0164696
4001.60	33.30	0.0164478
4005.70	33.23	0.0164601
4009.80	33.16	0.0164348
4013.90	33.10	0.0164332
4018.00	33.03	0.0164514
4022.10	32.96	0.0164759
4026.20	32.89	0.0164956
4030.30	32.82	0.0164841
4034.40	32.75	0.0164394
4038.50	32.69	0.0164683
4042.60	32.62	0.0164434
4046.70	32.55	0.0163787
4050.80	32.48	0.0163592
4054.90	32.41	0.0163422
4059.00	32.34	0.0163139
4063.10	32.28	0.0163145
4067.20	32.21	0.0162897
4071.30	32.14	0.0162833
4075.40	32.07	0.0162873
4079.50	32.00	0.0162639
4083.60	31.93	0.0163124
4087.70	31.87	0.0162758
4091.80	31.80	0.0162261
4095.90	31.73	0.0162171
4100.00	31.66	0.0162069
4104.10	31.59	0.0162096
4108.20	31.53	0.0161789
4112.30	31.46	0.0161511
4116.40	31.39	0.0161480
4120.50	31.32	0.0161830
4124.60	31.25	0.0161938
4128.70	31.18	0.0161531
4132.80	31.11	0.0161241
4136.90	31.05	0.0161168
4141.00	30.98	0.0160987
4145.10	30.91	0.0160968
4149.20	30.84	0.0160633
4153.30	30.77	0.0160426
4157.40	30.70	0.0160070
4161.50	30.64	0.0160231
4165.60	30.57	0.0159852
4169.70	30.50	0.0159597
4173.80	30.43	0.0159172
4177.90	30.36	0.0159234
4182.00	30.30	0.0159342
4186.10	30.23	0.0159258
4190.20	30.16	0.0158830
4194.30	30.09	0.0158916
4198.40	30.02	0.0158867
4202.50	29.95	0.0158371
4206.60	29.89	0.0158364
4210.70	29.81	0.0158590
4214.80	29.75	0.0158265
4218.90	29.68	0.0158160
4223.00	29.61	0.0158017
4227.10	29.54	0.0157653
4231.20	29.47	0.0157375
4235.30	29.41	0.0157309
4239.40	29.34	0.0157408
4243.50	29.27	0.0157529
4247.60	29.20	0.0157327
4251.70	29.13	0.0157627
4255.80	29.06	0.0157087
4259.90	29.00	0.0156605
4264.00	28.93	0.0156267
4268.10	28.86	0.0155980
4272.20	28.79	0.0155983
4276.30	28.72	0.0155614
4280.40	28.66	0.0155539
4284.50	28.59	0.0155467
4288.60	28.52	0.0155572
4292.70	28.45	0.0156127
4296.80	28.38	0.0155755
4300.90	28.31	0.0155293
4305.00	28.24	0.0155503
4309.10	28.18	0.0155792
4313.20	28.11	0.0155428
4317.30	28.04	0.0154960
4321.40	27.97	0.0155142
4325.50	27.90	0.0154913
4329.60	27.83	0.0154171
4333.70	27.77	0.0154267
4337.80	27.70	0.0154258
4341.90	27.63	0.0154280
4346.00	27.56	0.0154149
4350.10	27.49	0.0153484
4354.20	27.42	0.0153679
4358.30	27.36	0.0153558
4362.40	27.29	0.0154125
4366.50	27.22	0.0154254
4370.60	27.15	0.0155020
4374.70	27.08	0.0155378
4378.80	27.01	0.0155420
4382.90	26.95	0.0154912
4387.00	26.89	-2.54832e-4
4391.10	26.91	0.0821789
4395.20	27.05	0.542875
4399.30	27.10	1.12256
4403.40	27.04	1.20265
4407.50	26.96	1.15978
4411.60	26.88	1.11467
4415.70	26.81	1.10035
4419.80	26.75	1.12290
4423.90	26.69	1.12376
4428.00	26.67	1.19259
4432.10	26.70	1.37947
4436.20	26.72	1.73002
4440.30	26.67	2.09019
4444.40	26.34	1.44832
4448.50	26.07	0.762773
4452.60	25.90	0.401993
4456.70	25.77	0.214606
4460.80	25.68	0.118596
4464.90	25.60	0.0695896
4469.00	25.52	0.0441527
4473.10	25.45	0.0329910
4477.20	25.38	0.0271966
4481.30	25.31	0.0238359
4485.40	25.24	0.0224870
4489.50	25.17	0.0212779
4493.60	25.10	0.0201933
4497.70	25.03	0.0192272
4501.80	24.96	0.0184411
4505.90	24.90	0.0177544
4510.00	24.83	0.0171914
4514.10	24.76	0.0167237
4518.20	24.69	0.0163546
4522.30	24.62	0.0159942
4526.40	24.55	0.0157607
4530.50	24.49	0.0155391
4534.60	24.42	0.0153815
4538.70	24.35	0.0152045
4542.80	24.28	0.0150842
4546.90	24.21	0.0149648
4551.00	24.14	0.0148958
4555.10	24.08	0.0148038
4559.20	24.01	0.0147715
4563.30	23.94	0.0146950
4567.40	23.87	0.0146659
4571.50	23.80	0.0146441
4575.60	23.73	0.0146006
4579.70	23.67	0.0145830
4583.80	23.60	0.0145561
4587.90	23.53	0.0145404
4592.00	23.46	0.0144931
4596.10	23.39	0.0144898
4600.20	23.33	0.0144675
4604.30	23.26	0.0144749
4608.40	23.19	0.0144618
4612.50	23.12	0.0144765
4616.60	23.05	0.0144772
4620.70	22.98	0.0144629
4624.80	22.91	0.0144568
4628.90	22.85	0.0144883
4633.00	22.78	0.0144482
4637.10	22.71	0.0144546
4641.20	22.64	0.0144305
4645.30	22.57	0.0144152
4649.40	22.51	0.0143901
4653.50	22.44	0.0143740
4657.60	22.37	0.0143636
4661.70	22.30	0.0143843
4665.80	22.23	0.0143651
4669.90	22.16	0.0143268
4674.00	22.10	0.0143150
4678.10	22.03	0.0143323
4682.20	21.96	0.0143458
4686.30	21.89	0.0143389
4690.40	21.82	0.0143057
4694.50	21.75	0.0142700
4698.60	21.69	0.0142563
4702.70	21.62	0.0142075
4706.80	21.55	0.0141995
4710.90	21.48	0.0141639
4715.00	21.41	0.0141946
4719.10	21.34	0.0141504
4723.20	21.28	0.0141564
4727.30	21.21	0.0141335
4731.40	21.14	0.0141209
4735.50	21.07	0.0141067
4739.60	21.00	0.0140809
4743.70	20.93	0.0140488
4747.80	20.86	0.0140577
4751.90	20.80	0.0140073
4756.00	20.73	0.0139750
4760.10	20.66	0.0139169
4764.20	20.59	0.0139087
4768.30	20.52	0.0138876
4772.40	20.45	0.0138401
4776.50	20.39	0.0138464
4780.60	20.32	0.0138484
4784.70	20.25	0.0138067
4788.80	20.18	0.0137820
4792.90	20.11	0.0137071
4797.00	20.04	0.0136370
4801.10	19.98	0.0135892
4805.20	19.91	0.0135465
4809.30	19.84	0.0134810
4813.40	19.77	0.0134322
4817.50	19.70	0.0134176
4821.60	19.63	0.0133875
4825.70	19.57	0.0133893
4829.80	19.50	0.0133425
4833.90	19.43	0.0133110
4838.00	19.36	0.0132656
4842.10	19.29	0.0131964
4846.20	19.22	0.0131580
4850.30	19.16	0.0131174
4854.40	19.09	0.0130664
4858.50	19.02	0.0129698
4862.60	18.95	0.0129577
4866.70	18.88	0.0129090
4870.80	18.81	0.0128887
4874.90	18.75	0.0128537
4879.00	18.68	0.0127806
4883.10	18.61	0.0127315
4887.20	18.54	0.0126379
4891.30	18.47	0.0126026
4895.40	18.40	0.0125669
4899.50	18.33	0.0125285
4903.60	18.27	0.0124488
4907.70	18.20	0.0124161
4911.80	18.13	0.0123866
4915.90	18.06	0.0122647
4920.00	17.99	0.0122403
4924.10	17.93	0.0121714
4928.20	17.86	0.0121350
4932.30	17.79	0.0121034
4936.40	17.72	0.0120346
4940.50	17.65	0.0119878
4944.60	17.59	0.0119257
4948.70	17.52	0.0118897
4952.80	17.45	0.0118521
4956.90	17.38	0.0118129
4961.00	17.31	0.0117468
4965.10	17.24	0.0117337
4969.20	17.17	0.0116600
4973.30	17.11	0.0116578
4977.40	17.04	0.0115813
4981.50	16.97	0.0115552
4985.60	16.90	0.0114918
4989.70	16.83	0.0114139
4993.80	16.76	0.0113513
4997.90	16.70	0.0113433
5002.00	16.63	0.0112343
5006.10	16.56	0.0111857
5010.20	16.49	0.0111359
5014.30	16.42	0.0110845
5018.40	16.35	0.0110739
5022.50	16.29	0.0110038
5026.60	16.22	0.0109739
5030.70	16.15	0.0109053
5034.80	16.08	0.0108514
5038.90	16.01	0.0107840
5043.00	15.94	0.0106993
5047.10	15.88	0.0106539
5051.20	15.81	0.0105734
5055.30	15.74	0.0105392
5059.40	15.67	0.0105134
5063.50	15.60	0.0104560
5067.60	15.53	0.0104009
5071.70	15.47	0.0103502
5075.80	15.40	0.0102915
5079.90	15.33	0.0102330
5084.00	15.26	0.0101658
5088.10	15.19	0.0101375
5092.20	15.12	0.0100779
5096.30	15.05	9.97974e-3
5100.40	14.99	9.92278e-3
5104.50	14.92	9.84940e-3
5108.60	14.85	9.81083e-3
5112.70	14.78	9.77352e-3
5116.80	14.71	9.74337e-3
5120.90	14.64	9.71914e-3
5125.00	14.58	9.66839e-3
5129.10	14.51	9.60047e-3
5133.20	14.44	9.57368e-3
5137.30	14.37	9.49878e-3
5141.40	14.30	9.51787e-3
5145.50	14.23	9.41548e-3
5149.60	14.17	9.36641e-3
5153.70	14.10	9.30470e-3
5157.80	14.03	9.25080e-3
5161.90	13.96	9.18300e-3
5166.00	13.89	9.15439e-3
5170.10	13.82	9.14307e-3
5174.20	13.76	9.08059e-3
5178.30	13.69	9.05452e-3
5182.40	13.62	8.96383e-3
5186.50	13.55	8.88125e-3
5190.60	13.48	8.79592e-3
5194.70	13.41	8.75474e-3
5198.80	13.35	8.69859e-3
5202.90	13.28	8.67696e-3
5207.00	13.21	8.61502e-3
5211.10	13.14	8.59524e-3
5215.20	13.07	8.51624e-3
5219.30	13.01	8.50428e-3
5223.40	12.94	8.42816e-3
5227.50	12.87	8.36876e-3
5231.60	12.80	8.33728e-3
5235.70	12.73	8.29454e-3
5239.80	12.66	8.24709e-3
5243.90	12.60	8.18456e-3
5248.00	12.53	8.13948e-3
5252.10	12.46	8.10341e-3
5256.20	12.39	8.09600e-3
5260.30	12.32	8.03681e-3
5264.40	12.25	7.99559e-3
5268.50	12.18	7.96291e-3
5272.60	12.12	7.91892e-3
5276.70	12.05	7.93424e-3
5280.80	11.98	7.93185e-3
5284.90	11.91	7.88046e-3
5289.00	11.84	7.81002e-3
5293.10	11.77	7.77881e-3
5297.20	11.71	7.73120e-3
5301.30	11.64	7.71267e-3
5305.40	11.57	7.68718e-3
5309.50	11.50	7.65950e-3
5313.60	11.43	7.55526e-3
5317.70	11.36	7.56416e-3
5321.80	11.30	7.53994e-3
5325.90	11.23	7.47908e-3
5330.00	11.16	7.36795e-3
5334.10	11.09	7.31744e-3
5338.20	11.02	7.27532e-3
5342.30	10.95	7.23078e-3
5346.40	10.89	7.17211e-3
5350.50	10.82	7.16948e-3
5354.60	10.75	7.11253e-3
5358.70	10.68	7.05056e-3
5362.80	10.61	6.99164e-3
5366.90	10.54	6.93821e-3
5371.00	10.48	6.91863e-3
5375.10	10.41	6.84294e-3
5379.20	10.34	6.81894e-3
5383.30	10.27	6.78535e-3
5387.40	10.20	6.72672e-3
5391.50	10.13	6.69689e-3
5395.60	10.07	6.68021e-3
5399.70	10.00	6.57850e-3
5403.80	9.93	6.50771e-3
5407.90	9.86	6.48012e-3
5412.00	9.79	6.48600e-3
5416.10	9.72	6.43066e-3
5420.20	9.66	6.42694e-3
5424.30	9.59	6.41492e-3
5428.40	9.52	6.34906e-3
5432.50	9.45	6.30537e-3
5436.60	9.38	6.29404e-3
5440.70	9.31	6.24192e-3
5444.80	9.24	6.23438e-3
5448.90	9.18	6.20809e-3
5453.00	9.11	6.18975e-3
5457.10	9.04	6.13184e-3
5461.20	8.97	6.12462e-3
5465.30	8.90	6.08321e-3
5469.40	8.84	6.02619e-3
5473.50	8.77	5.96202e-3
5477.60	8.70	5.93202e-3
5481.70	8.63	5.89528e-3
5485.80	8.56	5.87400e-3
5489.90	8.50	5.82527e-3
5494.00	8.43	5.79316e-3
5498.10	8.36	5.73070e-3
5502.20	8.29	5.71366e-3
5506.30	8.22	5.70302e-3
5510.40	8.15	5.70659e-3
5514.50	8.09	5.67561e-3
5518.60	8.02	5.63746e-3
5522.70	7.95	5.61724e-3
5526.80	7.88	5.55352e-3
5530.90	7.81	5.52664e-3
5535.00	7.74	5.50851e-3
5539.10	7.67	5.49346e-3
5543.20	7.61	5.48718e-3
5547.30	7.54	5.47588e-3
5551.40	7.47	5.47617e-3
5555.50	7.40	5.44206e-3
5559.60	7.33	5.38145e-3
5563.70	7.26	5.36345e-3
5567.80	7.19	5.36547e-3
5571.90	7.13	5.32583e-3
5576.00	7.06	5.25846e-3
5580.10	6.99	5.18151e-3
5584.20	6.92	5.16546e-3
5588.30	6.85	5.13861e-3
5592.40	6.79	5.13154e-3
5596.50	6.72	5.06650e-3
5600.60	6.65	5.02546e-3
5604.70	6.58	5.04635e-3
5608.80	6.51	5.00070e-3
5612.90	6.44	4.95269e-3
5617.00	6.37	4.96985e-3
5621.10	6.31	4.92664e-3
5625.20	6.24	4.90647e-3
5629.30	6.17	4.88769e-3
5633.40	6.10	4.86855e-3
5637.50	6.03	4.79321e-3
5641.60	5.97	4.76194e-3
5645.70	5.90	4.72235e-3
5649.80	5.83	4.71306e-3
5653.90	5.76	4.65574e-3
5658.00	5.69	4.59460e-3
5662.10	5.62	4.60631e-3
5666.20	5.56	4.61057e-3
5670.30	5.49	4.61462e-3
5674.40	5.42	4.57339e-3
5678.50	5.35	4.56939e-3
5682.60	5.28	4.51992e-3
5686.70	5.21	4.54005e-3
5690.80	5.15	4.51461e-3
5694.90	5.08	4.46851e-3
5699.00	5.01	4.49619e-3
5703.10	4.94	4.43285e-3
5707.20	4.87	4.39987e-3
5711.30	4.80	4.37329e-3
5715.40	4.74	4.34973e-3
5719.50	4.67	4.35231e-3
5723.60	4.60	4.29831e-3
5727.70	4.53	4.34435e-3
5731.80	4.46	4.31019e-3
5735.90	4.39	4.29325e-3
5740.00	4.33	4.27205e-3
5744.10	4.26	4.26351e-3
5748.20	4.19	4.25117e-3
5752.30	4.12	4.19589e-3
5756.40	4.05	4.18055e-3
5760.50	3.98	4.10568e-3
5764.60	3.92	4.10328e-3
5768.70	3.85	4.08198e-3
5772.80	3.78	4.07255e-3
5776.90	3.71	4.05697e-3
5781.00	3.64	4.04776e-3
5785.10	3.57	4.00641e-3
5789.20	3.51	3.99608e-3
5793.30	3.44	4.00935e-3
5797.40	3.37	3.95337e-3
5801.50	3.30	3.92995e-3
5805.60	3.23	3.92784e-3
5809.70	3.17	3.94832e-3
5813.80	3.10	3.90250e-3
5817.90	3.03	3.88325e-3
5822.00	2.96	3.87735e-3
5826.10	2.89	3.85208e-3
5830.20	2.82	3.83963e-3
5834.30	2.75	3.86405e-3
5838.40	2.69	3.82355e-3
5842.50	2.62	3.77152e-3
5846.60	2.55	3.73113e-3
5850.70	2.48	3.71825e-3
5854.80	2.41	3.66837e-3
5858.90	2.34	3.65248e-3
5863.00	2.28	3.65295e-3
5867.10	2.21	3.61992e-3
5871.20	2.14	3.61385e-3
5875.30	2.07	3.58096e-3
5879.40	2.00	3.54965e-3
5883.50	1.93	3.52352e-3
5887.60	1.87	3.52194e-3
5891.70	1.80	3.47464e-3
5895.80	1.73	3.50676e-3
5899.90	1.66	3.48909e-3
5904.00	1.59	3.46037e-3
5908.10	1.52	3.45917e-3
5912.20	1.46	3.44522e-3
5916.30	1.39	3.40518e-3
5920.40	1.32	3.40739e-3
5924.50	1.25	3.44114e-3
5928.60	1.18	3.41888e-3
5932.70	1.11	3.42122e-3
5936.80	1.05	3.41178e-3
5940.90	0.98	3.40199e-3
5945.00	0.91	3.41350e-3
5949.10	0.84	3.39815e-3
5953.20	0.77	3.39822e-3
5957.30	0.70	3.38143e-3
5961.40	0.64	3.34102e-3
5965.50	0.57	3.33985e-3
5969.60	0.50	3.28001e-3
5973.70	0.43	3.26039e-3
5977.80	0.36	3.25041e-3
5981.90	0.29	3.23804e-3
5986.00	0.22	3.24077e-3
5990.10	0.16	3.17636e-3
5994.20	0.09	3.14656e-3
5998.30	0.02	3.14008e-3
6000.00	-0.01	3.12384e-3