File: Differential scanning calorimetry/8OCB Squalane/8OCB SqA wt fraction 042.txt
Filename	8OCBSA042
Instrument name	DSC2A-00101 (192.168.10.4)
Operator	Yuma
rundate	5/28/2021
Sample name	8OCBSA042
proceduresegments	Data Off ; Equilibrate 150.00 °C; Isothermal 10.0 min; Equilibrate 100.00 °C; Isothermal 5.0 min; Data On ; Ramp 1.00 °C/min to 0.00 °C; Ramp 5.00 °C/min to 150.00 °C; Data Off ; Isothermal 10.0 min; Modulate Temperature 1.00 °C for 60.0 s; Equilibrate 100.00 °C; Isothermal 10.0 min; Data On ; Ramp 1.00 °C/min to 0.00 °C; Ramp 3.00 °C/min to 100.00 °C; Jump 30.00 °C
[step]
Ramp 1.00 °C/min to 0.00 °C
Time	Temperature	Heat Flow (Normalized)
s	°C	W/g
0.00000	99.84	2.03718e-3
4.00000	99.83	2.08264e-3
8.00000	99.81	1.08681e-4
12.0000	99.77	2.94324e-3
16.0000	99.72	0.0114401
20.0000	99.66	0.0176282
24.0000	99.60	0.0226742
28.0000	99.54	0.0262465
32.0000	99.48	0.0284106
36.0000	99.41	0.0300139
40.0000	99.35	0.0308819
44.0000	99.28	0.0314533
48.0000	99.22	0.0319294
52.0000	99.15	0.0322943
56.0000	99.08	0.0326352
60.0000	99.02	0.0329245
64.0000	98.95	0.0331568
68.0000	98.89	0.0334034
72.0000	98.82	0.0335852
76.0000	98.75	0.0337175
80.0000	98.69	0.0338225
84.0000	98.62	0.0339037
88.0000	98.55	0.0339595
92.0000	98.49	0.0340011
96.0000	98.42	0.0340147
100.000	98.35	0.0340486
104.000	98.29	0.0340825
108.000	98.22	0.0341108
112.000	98.15	0.0341331
116.000	98.09	0.0341503
120.000	98.02	0.0341554
124.000	97.95	0.0341501
128.000	97.89	0.0341708
132.000	97.82	0.0341811
136.000	97.75	0.0341849
140.000	97.69	0.0341599
144.000	97.62	0.0341786
148.000	97.55	0.0341724
152.000	97.49	0.0341762
156.000	97.42	0.0341676
160.000	97.35	0.0341680
164.000	97.29	0.0341850
168.000	97.22	0.0341908
172.000	97.15	0.0342030
176.000	97.09	0.0342255
180.000	97.02	0.0341900
184.000	96.95	0.0341765
188.000	96.89	0.0341812
192.000	96.82	0.0341792
196.000	96.75	0.0341752
200.000	96.69	0.0341728
204.000	96.62	0.0341634
208.000	96.55	0.0341672
212.000	96.49	0.0341817
216.000	96.42	0.0341933
220.000	96.35	0.0341794
224.000	96.29	0.0341659
228.000	96.22	0.0341776
232.000	96.15	0.0341907
236.000	96.09	0.0341578
240.000	96.02	0.0341386
244.000	95.95	0.0341330
248.000	95.89	0.0341265
252.000	95.82	0.0341091
256.000	95.75	0.0340996
260.000	95.69	0.0340910
264.000	95.62	0.0341059
268.000	95.55	0.0341072
272.000	95.49	0.0341140
276.000	95.42	0.0341292
280.000	95.35	0.0341148
284.000	95.29	0.0340957
288.000	95.22	0.0340961
292.000	95.15	0.0340922
296.000	95.09	0.0340923
300.000	95.02	0.0340915
304.000	94.95	0.0341060
308.000	94.89	0.0341058
312.000	94.82	0.0340896
316.000	94.75	0.0340828
320.000	94.69	0.0340807
324.000	94.62	0.0340837
328.000	94.55	0.0340738
332.000	94.49	0.0340625
336.000	94.42	0.0340436
340.000	94.36	0.0340483
344.000	94.29	0.0340644
348.000	94.22	0.0340811
352.000	94.15	0.0341057
356.000	94.09	0.0341010
360.000	94.02	0.0341124
364.000	93.95	0.0341060
368.000	93.89	0.0340981
372.000	93.82	0.0340974
376.000	93.75	0.0340701
380.000	93.69	0.0340489
384.000	93.62	0.0340409
388.000	93.55	0.0340311
392.000	93.49	0.0340234
396.000	93.42	0.0340338
400.000	93.35	0.0340434
404.000	93.29	0.0340307
408.000	93.22	0.0340183
412.000	93.15	0.0340136
416.000	93.09	0.0340286
420.000	93.02	0.0340143
424.000	92.95	0.0340208
428.000	92.89	0.0340218
432.000	92.82	0.0340020
436.000	92.76	0.0339832
440.000	92.69	0.0339921
444.000	92.62	0.0339901
448.000	92.55	0.0339966
452.000	92.49	0.0339941
456.000	92.42	0.0340096
460.000	92.36	0.0340145
464.000	92.29	0.0340435
468.000	92.22	0.0340464
472.000	92.15	0.0340690
476.000	92.09	0.0341271
480.000	92.02	0.0341865
484.000	91.95	0.0341780
488.000	91.89	0.0341525
492.000	91.82	0.0341006
496.000	91.75	0.0340570
500.000	91.69	0.0340169
504.000	91.62	0.0339766
508.000	91.55	0.0339639
512.000	91.49	0.0339628
516.000	91.42	0.0339331
520.000	91.35	0.0338919
524.000	91.29	0.0338714
528.000	91.22	0.0338739
532.000	91.15	0.0338822
536.000	91.09	0.0338735
540.000	91.02	0.0338703
544.000	90.95	0.0338795
548.000	90.89	0.0338879
552.000	90.82	0.0338869
556.000	90.76	0.0339105
560.000	90.69	0.0339012
564.000	90.62	0.0338992
568.000	90.56	0.0339053
572.000	90.49	0.0339081
576.000	90.42	0.0338865
580.000	90.36	0.0338967
584.000	90.29	0.0338765
588.000	90.22	0.0338729
592.000	90.15	0.0338736
596.000	90.09	0.0338671
600.000	90.02	0.0338646
604.000	89.96	0.0338613
608.000	89.89	0.0338654
612.000	89.82	0.0338748
616.000	89.76	0.0338861
620.000	89.69	0.0339080
624.000	89.62	0.0339043
628.000	89.56	0.0339072
632.000	89.49	0.0338957
636.000	89.42	0.0338969
640.000	89.36	0.0338980
644.000	89.29	0.0338982
648.000	89.22	0.0338953
652.000	89.16	0.0338951
656.000	89.09	0.0338826
660.000	89.02	0.0338889
664.000	88.96	0.0338978
668.000	88.89	0.0339024
672.000	88.82	0.0338983
676.000	88.76	0.0338945
680.000	88.69	0.0338833
684.000	88.62	0.0338591
688.000	88.56	0.0338447
692.000	88.49	0.0338692
696.000	88.42	0.0338731
700.000	88.36	0.0338527
704.000	88.29	0.0338349
708.000	88.22	0.0338201
712.000	88.16	0.0338433
716.000	88.09	0.0338478
720.000	88.02	0.0338378
724.000	87.96	0.0338504
728.000	87.89	0.0338495
732.000	87.82	0.0338373
736.000	87.76	0.0338332
740.000	87.69	0.0338307
744.000	87.62	0.0338415
748.000	87.56	0.0338591
752.000	87.49	0.0338735
756.000	87.42	0.0338538
760.000	87.36	0.0338557
764.000	87.29	0.0338276
768.000	87.22	0.0338098
772.000	87.16	0.0338167
776.000	87.09	0.0338450
780.000	87.02	0.0338612
784.000	86.96	0.0338709
788.000	86.89	0.0338869
792.000	86.82	0.0338927
796.000	86.76	0.0338930
800.000	86.69	0.0338963
804.000	86.62	0.0338969
808.000	86.56	0.0339124
812.000	86.49	0.0339211
816.000	86.42	0.0339014
820.000	86.36	0.0338688
824.000	86.29	0.0338276
828.000	86.22	0.0338207
832.000	86.16	0.0337965
836.000	86.09	0.0337975
840.000	86.02	0.0338115
844.000	85.96	0.0338112
848.000	85.89	0.0338249
852.000	85.82	0.0338439
856.000	85.76	0.0338649
860.000	85.69	0.0338740
864.000	85.62	0.0339096
868.000	85.56	0.0339138
872.000	85.49	0.0338988
876.000	85.42	0.0338819
880.000	85.36	0.0338761
884.000	85.29	0.0338742
888.000	85.22	0.0338784
892.000	85.16	0.0338670
896.000	85.09	0.0338510
900.000	85.02	0.0338641
904.000	84.96	0.0338741
908.000	84.89	0.0338902
912.000	84.82	0.0339016
916.000	84.76	0.0339000
920.000	84.69	0.0338833
924.000	84.62	0.0338558
928.000	84.56	0.0338378
932.000	84.49	0.0338619
936.000	84.42	0.0338589
940.000	84.36	0.0338393
944.000	84.29	0.0338353
948.000	84.22	0.0338427
952.000	84.16	0.0338486
956.000	84.09	0.0338557
960.000	84.02	0.0338608
964.000	83.96	0.0338756
968.000	83.89	0.0338770
972.000	83.82	0.0338795
976.000	83.76	0.0338915
980.000	83.69	0.0338932
984.000	83.62	0.0338935
988.000	83.56	0.0338987
992.000	83.49	0.0339151
996.000	83.42	0.0339356
1000.00	83.36	0.0339567
1004.00	83.29	0.0339594
1008.00	83.22	0.0339772
1012.00	83.16	0.0339554
1016.00	83.09	0.0339482
1020.00	83.02	0.0339777
1024.00	82.96	0.0339827
1028.00	82.89	0.0339778
1032.00	82.82	0.0339625
1036.00	82.76	0.0339629
1040.00	82.69	0.0339335
1044.00	82.62	0.0339090
1048.00	82.56	0.0338841
1052.00	82.49	0.0338632
1056.00	82.42	0.0338580
1060.00	82.36	0.0338850
1064.00	82.29	0.0338950
1068.00	82.23	0.0339041
1072.00	82.16	0.0339141
1076.00	82.09	0.0339299
1080.00	82.02	0.0339419
1084.00	81.96	0.0339393
1088.00	81.89	0.0339323
1092.00	81.82	0.0339534
1096.00	81.76	0.0339707
1100.00	81.69	0.0339945
1104.00	81.62	0.0339939
1108.00	81.56	0.0339788
1112.00	81.49	0.0339917
1116.00	81.42	0.0340052
1120.00	81.36	0.0339939
1124.00	81.29	0.0339742
1128.00	81.23	0.0339577
1132.00	81.16	0.0339382
1136.00	81.09	0.0339435
1140.00	81.03	0.0339367
1144.00	80.96	0.0339541
1148.00	80.89	0.0339595
1152.00	80.82	0.0339618
1156.00	80.76	0.0339754
1160.00	80.69	0.0339988
1164.00	80.63	0.0340011
1168.00	80.56	0.0340289
1172.00	80.49	0.0340644
1176.00	80.42	0.0340739
1180.00	80.36	0.0341113
1184.00	80.29	0.0341075
1188.00	80.22	0.0340911
1192.00	80.16	0.0340922
1196.00	80.09	0.0340801
1200.00	80.02	0.0340851
1204.00	79.96	0.0340931
1208.00	79.89	0.0340934
1212.00	79.83	0.0340782
1216.00	79.76	0.0340720
1220.00	79.69	0.0340555
1224.00	79.63	0.0340562
1228.00	79.56	0.0340544
1232.00	79.49	0.0340666
1236.00	79.43	0.0340604
1240.00	79.36	0.0340888
1244.00	79.29	0.0341129
1248.00	79.23	0.0341263
1252.00	79.16	0.0341632
1256.00	79.09	0.0341824
1260.00	79.02	0.0342026
1264.00	78.96	0.0342142
1268.00	78.89	0.0342188
1272.00	78.83	0.0342065
1276.00	78.76	0.0342218
1280.00	78.69	0.0342391
1284.00	78.63	0.0342292
1288.00	78.56	0.0342257
1292.00	78.49	0.0342613
1296.00	78.43	0.0342664
1300.00	78.36	0.0342749
1304.00	78.29	0.0342675
1308.00	78.23	0.0342599
1312.00	78.16	0.0342543
1316.00	78.09	0.0342674
1320.00	78.03	0.0342790
1324.00	77.96	0.0342881
1328.00	77.89	0.0342921
1332.00	77.83	0.0343054
1336.00	77.76	0.0343283
1340.00	77.69	0.0343327
1344.00	77.63	0.0343481
1348.00	77.56	0.0343776
1352.00	77.49	0.0343860
1356.00	77.43	0.0343975
1360.00	77.36	0.0343995
1364.00	77.29	0.0343994
1368.00	77.23	0.0343937
1372.00	77.16	0.0344304
1376.00	77.09	0.0344724
1380.00	77.03	0.0344727
1384.00	76.96	0.0344991
1388.00	76.89	0.0345218
1392.00	76.83	0.0345567
1396.00	76.76	0.0345716
1400.00	76.69	0.0345870
1404.00	76.63	0.0346032
1408.00	76.56	0.0346283
1412.00	76.49	0.0346336
1416.00	76.43	0.0346338
1420.00	76.36	0.0346671
1424.00	76.29	0.0346855
1428.00	76.23	0.0347136
1432.00	76.16	0.0347296
1436.00	76.09	0.0347480
1440.00	76.03	0.0347646
1444.00	75.96	0.0347947
1448.00	75.89	0.0348037
1452.00	75.83	0.0348247
1456.00	75.76	0.0348452
1460.00	75.69	0.0348557
1464.00	75.63	0.0348752
1468.00	75.56	0.0348940
1472.00	75.50	0.0349535
1476.00	75.43	0.0349917
1480.00	75.36	0.0350356
1484.00	75.30	0.0350838
1488.00	75.23	0.0351314
1492.00	75.16	0.0351789
1496.00	75.09	0.0352322
1500.00	75.03	0.0352893
1504.00	74.96	0.0353376
1508.00	74.90	0.0354010
1512.00	74.83	0.0354499
1516.00	74.76	0.0355234
1520.00	74.70	0.0356454
1524.00	74.63	0.0358001
1528.00	74.56	0.0359553
1532.00	74.50	0.0361376
1536.00	74.43	0.0364608
1540.00	74.37	0.0367462
1544.00	74.30	0.0371763
1548.00	74.24	0.0381358
1552.00	74.17	0.0395091
1556.00	74.11	0.0404581
1560.00	74.04	0.0413129
1564.00	73.97	0.0420833
1568.00	73.91	0.0426884
1572.00	73.84	0.0431797
1576.00	73.78	0.0435762
1580.00	73.71	0.0439197
1584.00	73.64	0.0442361
1588.00	73.58	0.0445174
1592.00	73.51	0.0447018
1596.00	73.44	0.0448642
1600.00	73.38	0.0450088
1604.00	73.31	0.0451100
1608.00	73.24	0.0451716
1612.00	73.18	0.0452402
1616.00	73.11	0.0452483
1620.00	73.04	0.0452469
1624.00	72.98	0.0452285
1628.00	72.91	0.0452133
1632.00	72.84	0.0451942
1636.00	72.78	0.0451962
1640.00	72.71	0.0451728
1644.00	72.64	0.0451401
1648.00	72.58	0.0450961
1652.00	72.51	0.0450868
1656.00	72.44	0.0450783
1660.00	72.38	0.0450995
1664.00	72.31	0.0451105
1668.00	72.24	0.0451380
1672.00	72.18	0.0452009
1676.00	72.11	0.0452908
1680.00	72.04	0.0454127
1684.00	71.98	0.0456419
1688.00	71.91	0.0459760
1692.00	71.85	0.0463215
1696.00	71.78	0.0466456
1700.00	71.71	0.0468955
1704.00	71.65	0.0470864
1708.00	71.58	0.0472203
1712.00	71.51	0.0472496
1716.00	71.45	0.0471920
1720.00	71.38	0.0470373
1724.00	71.31	0.0468343
1728.00	71.24	0.0465988
1732.00	71.18	0.0463261
1736.00	71.11	0.0460358
1740.00	71.04	0.0457332
1744.00	70.97	0.0453914
1748.00	70.91	0.0450670
1752.00	70.84	0.0447285
1756.00	70.77	0.0443526
1760.00	70.71	0.0440347
1764.00	70.64	0.0437192
1768.00	70.57	0.0433879
1772.00	70.51	0.0430862
1776.00	70.44	0.0428062
1780.00	70.37	0.0425462
1784.00	70.30	0.0422809
1788.00	70.24	0.0420192
1792.00	70.17	0.0417868
1796.00	70.10	0.0415875
1800.00	70.04	0.0413848
1804.00	69.97	0.0411637
1808.00	69.90	0.0409866
1812.00	69.84	0.0407874
1816.00	69.77	0.0406230
1820.00	69.70	0.0404483
1824.00	69.64	0.0403064
1828.00	69.57	0.0401578
1832.00	69.50	0.0400050
1836.00	69.44	0.0398409
1840.00	69.37	0.0396936
1844.00	69.30	0.0395348
1848.00	69.24	0.0393875
1852.00	69.17	0.0392579
1856.00	69.10	0.0391291
1860.00	69.03	0.0390015
1864.00	68.97	0.0388702
1868.00	68.90	0.0387580
1872.00	68.83	0.0386491
1876.00	68.77	0.0385421
1880.00	68.70	0.0384530
1884.00	68.63	0.0383431
1888.00	68.57	0.0382718
1892.00	68.50	0.0381996
1896.00	68.44	0.0381229
1900.00	68.37	0.0380366
1904.00	68.30	0.0379914
1908.00	68.23	0.0379344
1912.00	68.17	0.0378910
1916.00	68.10	0.0378334
1920.00	68.03	0.0377537
1924.00	67.97	0.0376741
1928.00	67.90	0.0375976
1932.00	67.83	0.0375199
1936.00	67.77	0.0374496
1940.00	67.70	0.0374072
1944.00	67.63	0.0373543
1948.00	67.57	0.0373144
1952.00	67.50	0.0372505
1956.00	67.43	0.0372036
1960.00	67.37	0.0371625
1964.00	67.30	0.0371329
1968.00	67.23	0.0370798
1972.00	67.17	0.0370500
1976.00	67.10	0.0370008
1980.00	67.03	0.0369759
1984.00	66.97	0.0369281
1988.00	66.90	0.0368679
1992.00	66.83	0.0368373
1996.00	66.77	0.0367946
2000.00	66.70	0.0367586
2004.00	66.63	0.0367229
2008.00	66.57	0.0366931
2012.00	66.50	0.0366677
2016.00	66.43	0.0366555
2020.00	66.37	0.0366278
2024.00	66.30	0.0366017
2028.00	66.23	0.0365628
2032.00	66.16	0.0365465
2036.00	66.10	0.0365128
2040.00	66.03	0.0364676
2044.00	65.97	0.0364038
2048.00	65.90	0.0363447
2052.00	65.83	0.0363233
2056.00	65.77	0.0363004
2060.00	65.70	0.0362686
2064.00	65.63	0.0362418
2068.00	65.57	0.0362059
2072.00	65.50	0.0361745
2076.00	65.43	0.0361424
2080.00	65.37	0.0361284
2084.00	65.30	0.0361077
2088.00	65.23	0.0360943
2092.00	65.17	0.0360898
2096.00	65.10	0.0360793
2100.00	65.03	0.0360614
2104.00	64.97	0.0360521
2108.00	64.90	0.0360398
2112.00	64.83	0.0360174
2116.00	64.77	0.0359920
2120.00	64.70	0.0359738
2124.00	64.63	0.0359338
2128.00	64.57	0.0359273
2132.00	64.50	0.0359301
2136.00	64.43	0.0359112
2140.00	64.37	0.0359104
2144.00	64.30	0.0358867
2148.00	64.23	0.0358849
2152.00	64.17	0.0358797
2156.00	64.10	0.0358814
2160.00	64.03	0.0358592
2164.00	63.97	0.0358556
2168.00	63.90	0.0358617
2172.00	63.83	0.0358616
2176.00	63.77	0.0358709
2180.00	63.70	0.0358741
2184.00	63.63	0.0358905
2188.00	63.57	0.0358861
2192.00	63.50	0.0359161
2196.00	63.43	0.0359802
2200.00	63.37	0.0360402
2204.00	63.30	0.0360862
2208.00	63.23	0.0361502
2212.00	63.17	0.0362336
2216.00	63.10	0.0363251
2220.00	63.03	0.0364295
2224.00	62.97	0.0365637
2228.00	62.90	0.0366717
2232.00	62.83	0.0367422
2236.00	62.77	0.0367932
2240.00	62.70	0.0368241
2244.00	62.63	0.0368266
2248.00	62.57	0.0368223
2252.00	62.50	0.0367964
2256.00	62.43	0.0367708
2260.00	62.37	0.0367460
2264.00	62.30	0.0367211
2268.00	62.23	0.0366838
2272.00	62.17	0.0366413
2276.00	62.10	0.0365982
2280.00	62.03	0.0365491
2284.00	61.97	0.0365153
2288.00	61.90	0.0364744
2292.00	61.83	0.0364297
2296.00	61.77	0.0363947
2300.00	61.70	0.0363604
2304.00	61.63	0.0363009
2308.00	61.57	0.0362319
2312.00	61.50	0.0361503
2316.00	61.43	0.0360768
2320.00	61.37	0.0360089
2324.00	61.30	0.0359532
2328.00	61.23	0.0358792
2332.00	61.16	0.0357890
2336.00	61.10	0.0356886
2340.00	61.03	0.0355649
2344.00	60.97	0.0354155
2348.00	60.90	0.0352958
2352.00	60.83	0.0351826
2356.00	60.76	0.0350739
2360.00	60.70	0.0349710
2364.00	60.63	0.0348468
2368.00	60.57	0.0347472
2372.00	60.50	0.0346455
2376.00	60.43	0.0345553
2380.00	60.36	0.0344660
2384.00	60.30	0.0343685
2388.00	60.23	0.0342868
2392.00	60.16	0.0342045
2396.00	60.10	0.0341184
2400.00	60.03	0.0340584
2404.00	59.96	0.0339992
2408.00	59.90	0.0339383
2412.00	59.83	0.0338614
2416.00	59.76	0.0337971
2420.00	59.70	0.0337515
2424.00	59.63	0.0337010
2428.00	59.56	0.0336601
2432.00	59.50	0.0336159
2436.00	59.43	0.0335793
2440.00	59.36	0.0335169
2444.00	59.30	0.0334502
2448.00	59.23	0.0333806
2452.00	59.16	0.0333372
2456.00	59.10	0.0333045
2460.00	59.03	0.0332577
2464.00	58.96	0.0332125
2468.00	58.90	0.0331644
2472.00	58.83	0.0331150
2476.00	58.76	0.0330903
2480.00	58.70	0.0330633
2484.00	58.63	0.0330215
2488.00	58.56	0.0329932
2492.00	58.50	0.0329577
2496.00	58.43	0.0329250
2500.00	58.36	0.0328824
2504.00	58.30	0.0328518
2508.00	58.23	0.0328176
2512.00	58.16	0.0327891
2516.00	58.10	0.0327565
2520.00	58.03	0.0327213
2524.00	57.96	0.0327052
2528.00	57.90	0.0326869
2532.00	57.83	0.0326528
2536.00	57.76	0.0326267
2540.00	57.70	0.0325875
2544.00	57.63	0.0325442
2548.00	57.56	0.0325059
2552.00	57.50	0.0324861
2556.00	57.43	0.0324921
2560.00	57.36	0.0324686
2564.00	57.30	0.0324299
2568.00	57.23	0.0323938
2572.00	57.16	0.0323482
2576.00	57.10	0.0323316
2580.00	57.03	0.0323162
2584.00	56.96	0.0322823
2588.00	56.90	0.0322717
2592.00	56.83	0.0322464
2596.00	56.76	0.0322243
2600.00	56.70	0.0322084
2604.00	56.63	0.0321944
2608.00	56.56	0.0321706
2612.00	56.49	0.0321352
2616.00	56.43	0.0321117
2620.00	56.36	0.0320846
2624.00	56.30	0.0320531
2628.00	56.23	0.0320342
2632.00	56.16	0.0320030
2636.00	56.10	0.0319778
2640.00	56.03	0.0319664
2644.00	55.96	0.0319578
2648.00	55.90	0.0319413
2652.00	55.83	0.0319473
2656.00	55.76	0.0319541
2660.00	55.69	0.0319493
2664.00	55.63	0.0319364
2668.00	55.56	0.0319037
2672.00	55.50	0.0318914
2676.00	55.43	0.0318575
2680.00	55.36	0.0318391
2684.00	55.29	0.0318246
2688.00	55.23	0.0318205
2692.00	55.16	0.0317892
2696.00	55.10	0.0317659
2700.00	55.03	0.0317440
2704.00	54.96	0.0317197
2708.00	54.90	0.0316982
2712.00	54.83	0.0316608
2716.00	54.76	0.0316258
2720.00	54.70	0.0315939
2724.00	54.63	0.0315892
2728.00	54.56	0.0315833
2732.00	54.50	0.0315838
2736.00	54.43	0.0315732
2740.00	54.36	0.0315692
2744.00	54.30	0.0315568
2748.00	54.23	0.0315581
2752.00	54.16	0.0315412
2756.00	54.10	0.0315152
2760.00	54.03	0.0314897
2764.00	53.96	0.0314678
2768.00	53.90	0.0314584
2772.00	53.83	0.0314566
2776.00	53.76	0.0314354
2780.00	53.70	0.0314124
2784.00	53.63	0.0313845
2788.00	53.56	0.0313722
2792.00	53.49	0.0313544
2796.00	53.43	0.0313398
2800.00	53.36	0.0313320
2804.00	53.30	0.0313157
2808.00	53.23	0.0313046
2812.00	53.16	0.0312969
2816.00	53.09	0.0312908
2820.00	53.03	0.0312756
2824.00	52.96	0.0312606
2828.00	52.90	0.0312433
2832.00	52.83	0.0312439
2836.00	52.76	0.0312224
2840.00	52.70	0.0311955
2844.00	52.63	0.0311788
2848.00	52.56	0.0311449
2852.00	52.50	0.0311112
2856.00	52.43	0.0310797
2860.00	52.36	0.0310788
2864.00	52.30	0.0310878
2868.00	52.23	0.0310892
2872.00	52.16	0.0310915
2876.00	52.10	0.0310895
2880.00	52.03	0.0310935
2884.00	51.96	0.0310752
2888.00	51.89	0.0310655
2892.00	51.83	0.0310592
2896.00	51.76	0.0310522
2900.00	51.69	0.0310415
2904.00	51.63	0.0310263
2908.00	51.56	0.0309945
2912.00	51.50	0.0309792
2916.00	51.43	0.0309419
2920.00	51.36	0.0309226
2924.00	51.30	0.0309115
2928.00	51.23	0.0309034
2932.00	51.16	0.0308809
2936.00	51.10	0.0308791
2940.00	51.03	0.0308650
2944.00	50.96	0.0308480
2948.00	50.89	0.0308259
2952.00	50.83	0.0308280
2956.00	50.76	0.0308076
2960.00	50.70	0.0307839
2964.00	50.63	0.0307867
2968.00	50.56	0.0307706
2972.00	50.50	0.0307642
2976.00	50.43	0.0307499
2980.00	50.36	0.0307369
2984.00	50.30	0.0307281
2988.00	50.23	0.0306982
2992.00	50.16	0.0306843
2996.00	50.10	0.0306662
3000.00	50.03	0.0306904
3004.00	49.96	0.0306983
3008.00	49.90	0.0306730
3012.00	49.83	0.0306533
3016.00	49.76	0.0306344
3020.00	49.69	0.0306297
3024.00	49.63	0.0306237
3028.00	49.56	0.0306189
3032.00	49.49	0.0306150
3036.00	49.43	0.0306107
3040.00	49.36	0.0306007
3044.00	49.30	0.0305794
3048.00	49.23	0.0305648
3052.00	49.16	0.0305536
3056.00	49.09	0.0305489
3060.00	49.03	0.0305417
3064.00	48.96	0.0305200
3068.00	48.90	0.0305129
3072.00	48.83	0.0304939
3076.00	48.76	0.0304830
3080.00	48.70	0.0304790
3084.00	48.63	0.0304690
3088.00	48.56	0.0304598
3092.00	48.49	0.0304490
3096.00	48.43	0.0304274
3100.00	48.36	0.0304201
3104.00	48.29	0.0303955
3108.00	48.23	0.0303752
3112.00	48.16	0.0303473
3116.00	48.10	0.0303476
3120.00	48.03	0.0303240
3124.00	47.96	0.0302997
3128.00	47.90	0.0303075
3132.00	47.83	0.0303054
3136.00	47.76	0.0303205
3140.00	47.70	0.0303227
3144.00	47.63	0.0303337
3148.00	47.56	0.0303331
3152.00	47.50	0.0303683
3156.00	47.43	0.0303803
3160.00	47.36	0.0303816
3164.00	47.30	0.0303594
3168.00	47.23	0.0303252
3172.00	47.16	0.0303037
3176.00	47.10	0.0302758
3180.00	47.03	0.0302408
3184.00	46.96	0.0302148
3188.00	46.89	0.0301983
3192.00	46.83	0.0301717
3196.00	46.76	0.0301517
3200.00	46.69	0.0301421
3204.00	46.63	0.0301289
3208.00	46.56	0.0301002
3212.00	46.50	0.0301000
3216.00	46.43	0.0301033
3220.00	46.36	0.0300943
3224.00	46.29	0.0300866
3228.00	46.23	0.0300885
3232.00	46.16	0.0300892
3236.00	46.10	0.0300852
3240.00	46.03	0.0300983
3244.00	45.96	0.0300902
3248.00	45.90	0.0300676
3252.00	45.83	0.0300475
3256.00	45.76	0.0300409
3260.00	45.70	0.0300206
3264.00	45.63	0.0300213
3268.00	45.56	0.0300192
3272.00	45.49	0.0300142
3276.00	45.43	0.0300278
3280.00	45.36	0.0300050
3284.00	45.30	0.0299775
3288.00	45.23	0.0299565
3292.00	45.16	0.0299442
3296.00	45.10	0.0299216
3300.00	45.03	0.0299100
3304.00	44.96	0.0299118
3308.00	44.90	0.0299033
3312.00	44.83	0.0298939
3316.00	44.76	0.0298957
3320.00	44.70	0.0298941
3324.00	44.63	0.0298992
3328.00	44.56	0.0298950
3332.00	44.50	0.0298844
3336.00	44.43	0.0298766
3340.00	44.36	0.0298638
3344.00	44.30	0.0298542
3348.00	44.23	0.0298343
3352.00	44.16	0.0298186
3356.00	44.10	0.0298007
3360.00	44.03	0.0298041
3364.00	43.96	0.0298056
3368.00	43.90	0.0297994
3372.00	43.83	0.0297796
3376.00	43.76	0.0297715
3380.00	43.70	0.0297683
3384.00	43.63	0.0297562
3388.00	43.56	0.0297430
3392.00	43.50	0.0297300
3396.00	43.43	0.0297248
3400.00	43.36	0.0297106
3404.00	43.30	0.0296949
3408.00	43.23	0.0296851
3412.00	43.16	0.0296834
3416.00	43.09	0.0296830
3420.00	43.03	0.0296929
3424.00	42.96	0.0296976
3428.00	42.90	0.0296912
3432.00	42.83	0.0297031
3436.00	42.76	0.0296981
3440.00	42.70	0.0296830
3444.00	42.63	0.0296852
3448.00	42.56	0.0296699
3452.00	42.50	0.0296612
3456.00	42.43	0.0296292
3460.00	42.36	0.0296152
3464.00	42.29	0.0295959
3468.00	42.23	0.0295830
3472.00	42.16	0.0295662
3476.00	42.10	0.0295629
3480.00	42.03	0.0295647
3484.00	41.96	0.0295611
3488.00	41.90	0.0295491
3492.00	41.83	0.0295425
3496.00	41.76	0.0295290
3500.00	41.70	0.0295287
3504.00	41.63	0.0295194
3508.00	41.56	0.0295123
3512.00	41.50	0.0294842
3516.00	41.43	0.0294678
3520.00	41.36	0.0294668
3524.00	41.30	0.0294715
3528.00	41.23	0.0294733
3532.00	41.16	0.0294663
3536.00	41.10	0.0294576
3540.00	41.03	0.0294760
3544.00	40.96	0.0294764
3548.00	40.90	0.0294800
3552.00	40.83	0.0294752
3556.00	40.76	0.0294483
3560.00	40.70	0.0294367
3564.00	40.63	0.0294330
3568.00	40.56	0.0294220
3572.00	40.50	0.0294236
3576.00	40.43	0.0294148
3580.00	40.36	0.0294084
3584.00	40.29	0.0294031
3588.00	40.23	0.0294019
3592.00	40.16	0.0293824
3596.00	40.10	0.0293692
3600.00	40.03	0.0293556
3604.00	39.96	0.0293411
3608.00	39.90	0.0293429
3612.00	39.83	0.0293327
3616.00	39.76	0.0293238
3620.00	39.69	0.0293102
3624.00	39.63	0.0293113
3628.00	39.56	0.0293128
3632.00	39.50	0.0293198
3636.00	39.43	0.0293214
3640.00	39.36	0.0293008
3644.00	39.30	0.0292877
3648.00	39.23	0.0292850
3652.00	39.16	0.0292655
3656.00	39.10	0.0292420
3660.00	39.03	0.0292361
3664.00	38.96	0.0292240
3668.00	38.89	0.0292172
3672.00	38.83	0.0292091
3676.00	38.76	0.0292117
3680.00	38.70	0.0292183
3684.00	38.63	0.0292138
3688.00	38.56	0.0292008
3692.00	38.50	0.0292083
3696.00	38.43	0.0291810
3700.00	38.36	0.0291867
3704.00	38.29	0.0291989
3708.00	38.23	0.0291772
3712.00	38.16	0.0291543
3716.00	38.10	0.0291503
3720.00	38.03	0.0291820
3724.00	37.96	0.0291781
3728.00	37.90	0.0291703
3732.00	37.83	0.0291536
3736.00	37.76	0.0291491
3740.00	37.70	0.0291363
3744.00	37.63	0.0291259
3748.00	37.56	0.0291166
3752.00	37.50	0.0291081
3756.00	37.43	0.0291180
3760.00	37.36	0.0290914
3764.00	37.29	0.0290855
3768.00	37.23	0.0290781
3772.00	37.16	0.0290853
3776.00	37.10	0.0290538
3780.00	37.03	0.0290415
3784.00	36.96	0.0290640
3788.00	36.90	0.0290603
3792.00	36.83	0.0290469
3796.00	36.76	0.0290241
3800.00	36.70	0.0290059
3804.00	36.63	0.0289950
3808.00	36.56	0.0289862
3812.00	36.50	0.0289847
3816.00	36.43	0.0289792
3820.00	36.36	0.0289732
3824.00	36.29	0.0289759
3828.00	36.23	0.0289642
3832.00	36.16	0.0289474
3836.00	36.10	0.0289331
3840.00	36.03	0.0289263
3844.00	35.96	0.0289267
3848.00	35.90	0.0289050
3852.00	35.83	0.0288989
3856.00	35.76	0.0288976
3860.00	35.70	0.0288867
3864.00	35.63	0.0288704
3868.00	35.56	0.0288606
3872.00	35.50	0.0288644
3876.00	35.43	0.0288596
3880.00	35.36	0.0288487
3884.00	35.30	0.0288650
3888.00	35.23	0.0288710
3892.00	35.16	0.0288614
3896.00	35.10	0.0288512
3900.00	35.03	0.0288365
3904.00	34.96	0.0288329
3908.00	34.90	0.0288145
3912.00	34.83	0.0288101
3916.00	34.76	0.0288035
3920.00	34.70	0.0288173
3924.00	34.63	0.0288124
3928.00	34.56	0.0288028
3932.00	34.50	0.0287910
3936.00	34.43	0.0287784
3940.00	34.36	0.0287765
3944.00	34.30	0.0287775
3948.00	34.23	0.0287664
3952.00	34.16	0.0287509
3956.00	34.09	0.0287389
3960.00	34.03	0.0287220
3964.00	33.96	0.0287147
3968.00	33.90	0.0287143
3972.00	33.83	0.0287017
3976.00	33.76	0.0287025
3980.00	33.70	0.0286953
3984.00	33.63	0.0286742
3988.00	33.56	0.0286600
3992.00	33.50	0.0286608
3996.00	33.43	0.0286542
4000.00	33.36	0.0286552
4004.00	33.30	0.0286619
4008.00	33.23	0.0286660
4012.00	33.16	0.0286769
4016.00	33.10	0.0286901
4020.00	33.03	0.0286877
4024.00	32.96	0.0286748
4028.00	32.90	0.0286716
4032.00	32.83	0.0286681
4036.00	32.76	0.0286737
4040.00	32.70	0.0286636
4044.00	32.63	0.0286438
4048.00	32.56	0.0286328
4052.00	32.50	0.0286136
4056.00	32.43	0.0285865
4060.00	32.36	0.0285706
4064.00	32.30	0.0285523
4068.00	32.23	0.0285422
4072.00	32.16	0.0285231
4076.00	32.10	0.0285148
4080.00	32.03	0.0285156
4084.00	31.96	0.0285127
4088.00	31.90	0.0285243
4092.00	31.83	0.0285143
4096.00	31.76	0.0284876
4100.00	31.70	0.0284784
4104.00	31.63	0.0284752
4108.00	31.56	0.0284694
4112.00	31.50	0.0284449
4116.00	31.43	0.0284483
4120.00	31.36	0.0284530
4124.00	31.30	0.0284379
4128.00	31.23	0.0284419
4132.00	31.16	0.0284384
4136.00	31.10	0.0284426
4140.00	31.03	0.0284354
4144.00	30.96	0.0284390
4148.00	30.90	0.0284484
4152.00	30.83	0.0284371
4156.00	30.76	0.0284312
4160.00	30.70	0.0284295
4164.00	30.63	0.0284304
4168.00	30.56	0.0284194
4172.00	30.50	0.0284076
4176.00	30.43	0.0284088
4180.00	30.36	0.0284011
4184.00	30.30	0.0283862
4188.00	30.23	0.0283781
4192.00	30.16	0.0283568
4196.00	30.10	0.0283567
4200.00	30.03	0.0283508
4204.00	29.96	0.0283616
4208.00	29.90	0.0283539
4212.00	29.83	0.0283484
4216.00	29.76	0.0283486
4220.00	29.70	0.0283325
4224.00	29.63	0.0283374
4228.00	29.56	0.0283315
4232.00	29.50	0.0283241
4236.00	29.43	0.0283226
4240.00	29.36	0.0283217
4244.00	29.30	0.0283351
4248.00	29.23	0.0283156
4252.00	29.16	0.0283107
4256.00	29.10	0.0283002
4260.00	29.03	0.0282995
4264.00	28.96	0.0282841
4268.00	28.90	0.0282862
4272.00	28.83	0.0282802
4276.00	28.76	0.0282710
4280.00	28.70	0.0282500
4284.00	28.63	0.0282395
4288.00	28.56	0.0282281
4292.00	28.50	0.0282384
4296.00	28.43	0.0282277
4300.00	28.36	0.0282102
4304.00	28.30	0.0281857
4308.00	28.23	0.0281811
4312.00	28.16	0.0281715
4316.00	28.10	0.0281749
4320.00	28.03	0.0281661
4324.00	27.96	0.0281635
4328.00	27.90	0.0281551
4332.00	27.83	0.0281619
4336.00	27.76	0.0281529
4340.00	27.70	0.0281381
4344.00	27.63	0.0281469
4348.00	27.56	0.0281664
4352.00	27.50	0.0281978
4356.00	27.43	0.0282272
4360.00	27.36	0.0282608
4364.00	27.30	0.0282866
4368.00	27.23	0.0282957
4372.00	27.16	0.0282963
4376.00	27.10	0.0282891
4380.00	27.03	0.0282967
4384.00	26.96	0.0282882
4388.00	26.90	0.0282905
4392.00	26.83	0.0282960
4396.00	26.76	0.0283102
4400.00	26.70	0.0283052
4404.00	26.63	0.0283198
4408.00	26.56	0.0283328
4412.00	26.50	0.0283450
4416.00	26.43	0.0283634
4420.00	26.37	0.0283541
4424.00	26.30	0.0285010
4428.00	26.27	0.0216050
4432.00	26.37	0.0849139
4436.00	26.55	0.242690
4440.00	26.81	0.428750
4444.00	27.21	0.704239
4448.00	27.69	1.10282
4452.00	28.03	1.44492
4456.00	28.23	1.65519
4460.00	28.34	1.81506
4464.00	28.29	1.86452
4468.00	28.10	1.80192
4472.00	27.80	1.67028
4476.00	27.39	1.47072
4480.00	26.79	1.15419
4484.00	26.21	0.757006
4488.00	25.81	0.493515
4492.00	25.53	0.324094
4496.00	25.33	0.215281
4500.00	25.17	0.146181
4504.00	25.05	0.102263
4508.00	24.95	0.0742829
4512.00	24.86	0.0564296
4516.00	24.78	0.0449159
4520.00	24.71	0.0378487
4524.00	24.64	0.0334279
4528.00	24.57	0.0304846
4532.00	24.50	0.0287678
4536.00	24.43	0.0278069
4540.00	24.36	0.0272155
4544.00	24.29	0.0267637
4548.00	24.23	0.0263628
4552.00	24.16	0.0260066
4556.00	24.09	0.0256823
4560.00	24.02	0.0253850
4564.00	23.96	0.0251148
4568.00	23.89	0.0248829
4572.00	23.82	0.0246948
4576.00	23.76	0.0245338
4580.00	23.69	0.0243701
4584.00	23.62	0.0242367
4588.00	23.56	0.0241248
4592.00	23.49	0.0240361
4596.00	23.42	0.0239475
4600.00	23.36	0.0238577
4604.00	23.29	0.0237864
4608.00	23.22	0.0237163
4612.00	23.16	0.0236570
4616.00	23.09	0.0236063
4620.00	23.02	0.0235528
4624.00	22.96	0.0234984
4628.00	22.89	0.0234426
4632.00	22.83	0.0233868
4636.00	22.76	0.0233312
4640.00	22.69	0.0232756
4644.00	22.62	0.0232488
4648.00	22.56	0.0232283
4652.00	22.49	0.0231881
4656.00	22.42	0.0231597
4660.00	22.36	0.0231291
4664.00	22.29	0.0230853
4668.00	22.22	0.0230534
4672.00	22.16	0.0230297
4676.00	22.09	0.0229969
4680.00	22.02	0.0229778
4684.00	21.96	0.0229336
4688.00	21.89	0.0229005
4692.00	21.82	0.0228727
4696.00	21.76	0.0228436
4700.00	21.69	0.0228139
4704.00	21.62	0.0227840
4708.00	21.56	0.0227623
4712.00	21.49	0.0227378
4716.00	21.42	0.0227055
4720.00	21.36	0.0226713
4724.00	21.29	0.0226593
4728.00	21.22	0.0226272
4732.00	21.16	0.0226001
4736.00	21.09	0.0226010
4740.00	21.02	0.0225722
4744.00	20.96	0.0225580
4748.00	20.89	0.0225289
4752.00	20.82	0.0225049
4756.00	20.76	0.0224711
4760.00	20.69	0.0224508
4764.00	20.62	0.0224437
4768.00	20.56	0.0224153
4772.00	20.49	0.0224112
4776.00	20.42	0.0223817
4780.00	20.36	0.0223509
4784.00	20.29	0.0223299
4788.00	20.22	0.0223065
4792.00	20.16	0.0222849
4796.00	20.09	0.0222579
4800.00	20.02	0.0222340
4804.00	19.96	0.0222034
4808.00	19.89	0.0221888
4812.00	19.82	0.0221794
4816.00	19.76	0.0221744
4820.00	19.69	0.0221471
4824.00	19.62	0.0221151
4828.00	19.56	0.0221079
4832.00	19.49	0.0220946
4836.00	19.42	0.0220828
4840.00	19.36	0.0220675
4844.00	19.29	0.0220469
4848.00	19.22	0.0220259
4852.00	19.16	0.0220070
4856.00	19.09	0.0219908
4860.00	19.02	0.0219838
4864.00	18.96	0.0219888
4868.00	18.89	0.0219742
4872.00	18.82	0.0219644
4876.00	18.76	0.0219268
4880.00	18.69	0.0219231
4884.00	18.62	0.0218848
4888.00	18.56	0.0218624
4892.00	18.49	0.0218395
4896.00	18.42	0.0218134
4900.00	18.36	0.0218025
4904.00	18.29	0.0217958
4908.00	18.22	0.0217752
4912.00	18.16	0.0217866
4916.00	18.09	0.0217675
4920.00	18.02	0.0217504
4924.00	17.95	0.0217329
4928.00	17.89	0.0217159
4932.00	17.82	0.0216949
4936.00	17.76	0.0216724
4940.00	17.69	0.0216568
4944.00	17.62	0.0216427
4948.00	17.56	0.0216174
4952.00	17.49	0.0215956
4956.00	17.42	0.0215717
4960.00	17.36	0.0215463
4964.00	17.29	0.0215267
4968.00	17.22	0.0215032
4972.00	17.16	0.0214995
4976.00	17.09	0.0215066
4980.00	17.02	0.0214974
4984.00	16.96	0.0214824
4988.00	16.89	0.0214801
4992.00	16.82	0.0214619
4996.00	16.76	0.0214455
5000.00	16.69	0.0214269
5004.00	16.62	0.0214140
5008.00	16.56	0.0214086
5012.00	16.49	0.0213982
5016.00	16.42	0.0213781
5020.00	16.36	0.0213560
5024.00	16.29	0.0213362
5028.00	16.22	0.0213193
5032.00	16.16	0.0213129
5036.00	16.09	0.0213050
5040.00	16.02	0.0212931
5044.00	15.96	0.0213067
5048.00	15.89	0.0212900
5052.00	15.82	0.0212736
5056.00	15.75	0.0212580
5060.00	15.69	0.0212476
5064.00	15.62	0.0212333
5068.00	15.56	0.0212195
5072.00	15.49	0.0212127
5076.00	15.42	0.0212218
5080.00	15.36	0.0212135
5084.00	15.29	0.0211981
5088.00	15.22	0.0211781
5092.00	15.15	0.0211622
5096.00	15.09	0.0211533
5100.00	15.02	0.0211409
5104.00	14.95	0.0211226
5108.00	14.89	0.0211023
5112.00	14.82	0.0210803
5116.00	14.75	0.0210640
5120.00	14.69	0.0210516
5124.00	14.62	0.0210391
5128.00	14.55	0.0210234
5132.00	14.49	0.0210141
5136.00	14.42	0.0210017
5140.00	14.36	0.0210102
5144.00	14.29	0.0210073
5148.00	14.22	0.0210142
5152.00	14.15	0.0210035
5156.00	14.09	0.0210003
5160.00	14.02	0.0209789
5164.00	13.96	0.0209698
5168.00	13.89	0.0209617
5172.00	13.82	0.0209648
5176.00	13.76	0.0209704
5180.00	13.69	0.0209497
5184.00	13.62	0.0209384
5188.00	13.55	0.0209173
5192.00	13.49	0.0209146
5196.00	13.42	0.0208893
5200.00	13.35	0.0208791
5204.00	13.29	0.0208535
5208.00	13.22	0.0208492
5212.00	13.15	0.0208394
5216.00	13.09	0.0208134
5220.00	13.02	0.0207798
5224.00	12.95	0.0207618
5228.00	12.89	0.0207637
5232.00	12.82	0.0207353
5236.00	12.75	0.0207197
5240.00	12.69	0.0207122
5244.00	12.62	0.0207086
5248.00	12.55	0.0206917
5252.00	12.49	0.0206800
5256.00	12.42	0.0206751
5260.00	12.36	0.0206658
5264.00	12.29	0.0206498
5268.00	12.22	0.0206516
5272.00	12.15	0.0206534
5276.00	12.09	0.0206511
5280.00	12.02	0.0206448
5284.00	11.96	0.0206341
5288.00	11.89	0.0206122
5292.00	11.82	0.0206087
5296.00	11.76	0.0206004
5300.00	11.69	0.0205908
5304.00	11.62	0.0205775
5308.00	11.55	0.0205679
5312.00	11.49	0.0205375
5316.00	11.42	0.0205248
5320.00	11.36	0.0205130
5324.00	11.29	0.0204925
5328.00	11.22	0.0204876
5332.00	11.16	0.0204917
5336.00	11.09	0.0204859
5340.00	11.02	0.0204670
5344.00	10.96	0.0204490
5348.00	10.89	0.0204258
5352.00	10.82	0.0204076
5356.00	10.76	0.0203948
5360.00	10.69	0.0203653
5364.00	10.62	0.0203510
5368.00	10.56	0.0203371
5372.00	10.49	0.0203294
5376.00	10.42	0.0203091
5380.00	10.36	0.0203080
5384.00	10.29	0.0202931
5388.00	10.22	0.0202899
5392.00	10.15	0.0202826
5396.00	10.09	0.0202748
5400.00	10.02	0.0202644
5404.00	9.95	0.0202354
5408.00	9.89	0.0202238
5412.00	9.82	0.0202285
5416.00	9.75	0.0202089
5420.00	9.69	0.0202173
5424.00	9.62	0.0202092
5428.00	9.56	0.0201944
5432.00	9.49	0.0201753
5436.00	9.42	0.0201593
5440.00	9.36	0.0201488
5444.00	9.29	0.0201348
5448.00	9.22	0.0201129
5452.00	9.16	0.0200941
5456.00	9.09	0.0200662
5460.00	9.02	0.0200605
5464.00	8.95	0.0200636
5468.00	8.89	0.0200592
5472.00	8.82	0.0200514
5476.00	8.75	0.0200553
5480.00	8.69	0.0200379
5484.00	8.62	0.0200279
5488.00	8.55	0.0200153
5492.00	8.49	0.0199925
5496.00	8.42	0.0199736
5500.00	8.35	0.0199582
5504.00	8.29	0.0199396
5508.00	8.22	0.0199359
5512.00	8.15	0.0199419
5516.00	8.09	0.0199211
5520.00	8.02	0.0199086
5524.00	7.96	0.0199051
5528.00	7.89	0.0198882
5532.00	7.82	0.0198842
5536.00	7.76	0.0198861
5540.00	7.69	0.0198838
5544.00	7.62	0.0198755
5548.00	7.55	0.0198665
5552.00	7.49	0.0198471
5556.00	7.42	0.0198214
5560.00	7.36	0.0197961
5564.00	7.29	0.0197792
5568.00	7.22	0.0197624
5572.00	7.15	0.0197552
5576.00	7.09	0.0197315
5580.00	7.02	0.0196996
5584.00	6.95	0.0196829
5588.00	6.89	0.0196643
5592.00	6.82	0.0196497
5596.00	6.76	0.0196438
5600.00	6.69	0.0196354
5604.00	6.62	0.0196306
5608.00	6.55	0.0196293
5612.00	6.49	0.0196161
5616.00	6.42	0.0196029
5620.00	6.36	0.0195944
5624.00	6.29	0.0195850
5628.00	6.22	0.0195569
5632.00	6.15	0.0195524
5636.00	6.09	0.0195487
5640.00	6.02	0.0195470
5644.00	5.96	0.0195206
5648.00	5.89	0.0195019
5652.00	5.82	0.0195070
5656.00	5.75	0.0195075
5660.00	5.69	0.0195120
5664.00	5.62	0.0195058
5668.00	5.56	0.0194803
5672.00	5.49	0.0194572
5676.00	5.42	0.0194462
5680.00	5.35	0.0194350
5684.00	5.29	0.0194222
5688.00	5.22	0.0193911
5692.00	5.15	0.0193816
5696.00	5.09	0.0193731
5700.00	5.02	0.0193654
5704.00	4.95	0.0193587
5708.00	4.89	0.0193499
5712.00	4.82	0.0193382
5716.00	4.76	0.0193257
5720.00	4.69	0.0193074
5724.00	4.62	0.0192955
5728.00	4.56	0.0192754
5732.00	4.49	0.0192590
5736.00	4.42	0.0192458
5740.00	4.36	0.0192351
5744.00	4.29	0.0192239
5748.00	4.22	0.0192319
5752.00	4.16	0.0192051
5756.00	4.09	0.0191781
5760.00	4.02	0.0191730
5764.00	3.95	0.0191786
5768.00	3.89	0.0191688
5772.00	3.82	0.0191594
5776.00	3.76	0.0191640
5780.00	3.69	0.0191617
5784.00	3.62	0.0191590
5788.00	3.55	0.0191603
5792.00	3.49	0.0191642
5796.00	3.42	0.0191807
5800.00	3.35	0.0191861
5804.00	3.29	0.0191851
5808.00	3.22	0.0191656
5812.00	3.16	0.0191482
5816.00	3.09	0.0191281
5820.00	3.02	0.0191079
5824.00	2.95	0.0190936
5828.00	2.89	0.0190851
5832.00	2.82	0.0190666
5836.00	2.75	0.0190592
5840.00	2.69	0.0190347
5844.00	2.62	0.0190158
5848.00	2.56	0.0190055
5852.00	2.49	0.0189941
5856.00	2.42	0.0189806
5860.00	2.35	0.0189726
5864.00	2.29	0.0189581
5868.00	2.22	0.0189474
5872.00	2.16	0.0189353
5876.00	2.09	0.0189301
5880.00	2.02	0.0189316
5884.00	1.95	0.0189408
5888.00	1.89	0.0189690
5892.00	1.82	0.0189730
5896.00	1.75	0.0189748
5900.00	1.69	0.0189825
5904.00	1.62	0.0189788
5908.00	1.55	0.0189638
5912.00	1.49	0.0189604
5916.00	1.42	0.0189469
5920.00	1.36	0.0189278
5924.00	1.29	0.0189245
5928.00	1.22	0.0189163
5932.00	1.15	0.0189076
5936.00	1.09	0.0188851
5940.00	1.02	0.0188687
5944.00	0.95	0.0188428
5948.00	0.89	0.0188440
5952.00	0.82	0.0188409
5956.00	0.76	0.0188337
5960.00	0.69	0.0188230
5964.00	0.62	0.0188035
5968.00	0.55	0.0187884
5972.00	0.49	0.0187808
5976.00	0.42	0.0187756
5980.00	0.35	0.0187559
5984.00	0.29	0.0187330
5988.00	0.22	0.0187319
5992.00	0.16	0.0187285
5996.00	0.09	0.0187052
5999.90	0.02	0.0186914