File: Differential scanning calorimetry/8OCB Squalane/8OCB SqA wt fraction 397.txt
Filename	8OCBSA397
Instrument name	DSC2A-00101 (192.168.10.4)
Operator	Yuma
rundate	5/28/2021
Sample name	8OCBSA397
proceduresegments	Data Off ; Equilibrate 150.00 °C; Isothermal 10.0 min; Equilibrate 100.00 °C; Isothermal 5.0 min; Data On ; Ramp 1.00 °C/min to 0.00 °C; Ramp 5.00 °C/min to 150.00 °C; Data Off ; Isothermal 10.0 min; Modulate Temperature 1.00 °C for 60.0 s; Equilibrate 100.00 °C; Isothermal 10.0 min; Data On ; Ramp 1.00 °C/min to 0.00 °C; Ramp 3.00 °C/min to 100.00 °C; Jump 30.00 °C
[step]
Ramp 1.00 °C/min to 0.00 °C
Time	Temperature	Heat Flow (Normalized)
s	°C	W/g
0.00000	99.84	4.45707e-3
4.00000	99.83	4.70483e-3
8.00000	99.81	2.74459e-3
12.0000	99.76	2.86757e-3
16.0000	99.70	0.0134510
20.0000	99.65	0.0208668
24.0000	99.58	0.0257689
28.0000	99.52	0.0282495
32.0000	99.45	0.0297040
36.0000	99.39	0.0306646
40.0000	99.32	0.0315097
44.0000	99.25	0.0323026
48.0000	99.19	0.0329030
52.0000	99.12	0.0333794
56.0000	99.06	0.0338131
60.0000	98.99	0.0341064
64.0000	98.92	0.0342995
68.0000	98.86	0.0345172
72.0000	98.79	0.0346508
76.0000	98.72	0.0347134
80.0000	98.66	0.0348180
84.0000	98.59	0.0348506
88.0000	98.52	0.0348687
92.0000	98.46	0.0349090
96.0000	98.39	0.0349512
100.000	98.32	0.0349872
104.000	98.26	0.0350117
108.000	98.19	0.0350156
112.000	98.12	0.0350383
116.000	98.06	0.0350216
120.000	97.99	0.0350289
124.000	97.92	0.0350456
128.000	97.86	0.0350183
132.000	97.79	0.0349704
136.000	97.72	0.0349507
140.000	97.66	0.0349448
144.000	97.59	0.0349316
148.000	97.52	0.0349037
152.000	97.46	0.0349270
156.000	97.39	0.0349389
160.000	97.32	0.0349239
164.000	97.26	0.0348843
168.000	97.19	0.0348346
172.000	97.12	0.0348433
176.000	97.06	0.0348318
180.000	96.99	0.0348040
184.000	96.92	0.0348005
188.000	96.86	0.0347855
192.000	96.79	0.0347982
196.000	96.72	0.0347759
200.000	96.66	0.0347594
204.000	96.59	0.0347522
208.000	96.52	0.0347725
212.000	96.46	0.0348070
216.000	96.39	0.0348065
220.000	96.32	0.0347545
224.000	96.26	0.0347615
228.000	96.19	0.0347157
232.000	96.12	0.0347195
236.000	96.06	0.0347093
240.000	95.99	0.0346570
244.000	95.92	0.0346523
248.000	95.86	0.0346945
252.000	95.79	0.0346901
256.000	95.72	0.0346529
260.000	95.66	0.0346238
264.000	95.59	0.0346469
268.000	95.52	0.0346168
272.000	95.46	0.0346385
276.000	95.39	0.0346025
280.000	95.33	0.0346057
284.000	95.26	0.0345926
288.000	95.19	0.0345448
292.000	95.13	0.0345892
296.000	95.06	0.0345781
300.000	94.99	0.0345886
304.000	94.93	0.0345963
308.000	94.86	0.0345663
312.000	94.79	0.0345655
316.000	94.72	0.0345509
320.000	94.66	0.0345843
324.000	94.59	0.0345473
328.000	94.52	0.0345322
332.000	94.46	0.0345118
336.000	94.39	0.0345081
340.000	94.32	0.0344867
344.000	94.26	0.0344564
348.000	94.19	0.0344611
352.000	94.12	0.0344428
356.000	94.06	0.0344312
360.000	93.99	0.0343895
364.000	93.93	0.0343408
368.000	93.86	0.0343096
372.000	93.79	0.0342852
376.000	93.73	0.0342626
380.000	93.66	0.0342674
384.000	93.59	0.0342450
388.000	93.53	0.0342360
392.000	93.46	0.0342541
396.000	93.39	0.0342624
400.000	93.32	0.0342478
404.000	93.26	0.0342756
408.000	93.19	0.0342375
412.000	93.13	0.0342132
416.000	93.06	0.0341817
420.000	92.99	0.0341770
424.000	92.93	0.0341827
428.000	92.86	0.0342123
432.000	92.79	0.0342031
436.000	92.72	0.0342165
440.000	92.66	0.0341949
444.000	92.59	0.0341924
448.000	92.52	0.0341451
452.000	92.46	0.0341384
456.000	92.39	0.0340907
460.000	92.33	0.0340901
464.000	92.26	0.0340652
468.000	92.19	0.0340412
472.000	92.12	0.0340612
476.000	92.06	0.0340583
480.000	91.99	0.0340529
484.000	91.93	0.0339978
488.000	91.86	0.0340035
492.000	91.79	0.0339929
496.000	91.73	0.0339553
500.000	91.66	0.0339881
504.000	91.59	0.0339965
508.000	91.52	0.0339691
512.000	91.46	0.0339550
516.000	91.39	0.0339436
520.000	91.32	0.0339598
524.000	91.26	0.0339637
528.000	91.19	0.0339681
532.000	91.12	0.0339469
536.000	91.06	0.0339129
540.000	90.99	0.0339062
544.000	90.93	0.0339029
548.000	90.86	0.0338973
552.000	90.79	0.0338920
556.000	90.73	0.0338745
560.000	90.66	0.0338429
564.000	90.59	0.0338688
568.000	90.52	0.0338673
572.000	90.46	0.0338310
576.000	90.39	0.0338180
580.000	90.33	0.0337608
584.000	90.26	0.0337626
588.000	90.19	0.0337408
592.000	90.13	0.0337447
596.000	90.06	0.0337584
600.000	89.99	0.0337204
604.000	89.93	0.0337171
608.000	89.86	0.0337110
612.000	89.79	0.0336250
616.000	89.73	0.0336371
620.000	89.66	0.0336350
624.000	89.59	0.0336381
628.000	89.53	0.0336124
632.000	89.46	0.0335972
636.000	89.39	0.0335936
640.000	89.33	0.0336008
644.000	89.26	0.0335708
648.000	89.19	0.0335264
652.000	89.13	0.0335290
656.000	89.06	0.0335348
660.000	88.99	0.0335353
664.000	88.93	0.0334814
668.000	88.86	0.0334553
672.000	88.79	0.0334489
676.000	88.73	0.0334701
680.000	88.66	0.0334699
684.000	88.59	0.0334620
688.000	88.53	0.0334459
692.000	88.46	0.0334738
696.000	88.39	0.0334588
700.000	88.33	0.0334933
704.000	88.26	0.0334786
708.000	88.19	0.0334464
712.000	88.13	0.0334449
716.000	88.06	0.0334255
720.000	87.99	0.0334139
724.000	87.93	0.0334080
728.000	87.86	0.0333935
732.000	87.79	0.0333438
736.000	87.73	0.0333366
740.000	87.66	0.0333058
744.000	87.59	0.0332778
748.000	87.53	0.0332813
752.000	87.46	0.0332515
756.000	87.39	0.0332563
760.000	87.33	0.0332508
764.000	87.26	0.0332973
768.000	87.19	0.0333170
772.000	87.13	0.0333054
776.000	87.06	0.0332756
780.000	86.99	0.0332735
784.000	86.93	0.0332554
788.000	86.86	0.0332342
792.000	86.79	0.0331970
796.000	86.73	0.0332237
800.000	86.66	0.0332197
804.000	86.59	0.0332172
808.000	86.53	0.0331949
812.000	86.46	0.0332224
816.000	86.39	0.0331857
820.000	86.33	0.0331986
824.000	86.26	0.0331849
828.000	86.19	0.0331775
832.000	86.13	0.0331839
836.000	86.06	0.0331230
840.000	85.99	0.0330824
844.000	85.93	0.0330530
848.000	85.86	0.0330325
852.000	85.79	0.0330345
856.000	85.73	0.0330370
860.000	85.66	0.0330789
864.000	85.59	0.0330428
868.000	85.53	0.0330372
872.000	85.46	0.0330240
876.000	85.39	0.0330231
880.000	85.33	0.0329996
884.000	85.26	0.0330415
888.000	85.19	0.0330172
892.000	85.13	0.0329946
896.000	85.06	0.0329799
900.000	84.99	0.0329618
904.000	84.93	0.0329680
908.000	84.86	0.0329637
912.000	84.79	0.0329407
916.000	84.73	0.0329116
920.000	84.66	0.0329332
924.000	84.59	0.0329540
928.000	84.53	0.0329186
932.000	84.46	0.0328895
936.000	84.39	0.0328821
940.000	84.33	0.0328809
944.000	84.26	0.0328447
948.000	84.19	0.0327886
952.000	84.13	0.0327646
956.000	84.06	0.0327715
960.000	83.99	0.0327685
964.000	83.93	0.0327394
968.000	83.86	0.0327264
972.000	83.79	0.0326853
976.000	83.73	0.0327086
980.000	83.66	0.0327024
984.000	83.59	0.0326761
988.000	83.53	0.0326934
992.000	83.46	0.0326564
996.000	83.40	0.0326341
1000.00	83.33	0.0326646
1004.00	83.26	0.0326736
1008.00	83.19	0.0326353
1012.00	83.13	0.0326535
1016.00	83.06	0.0326651
1020.00	82.99	0.0326254
1024.00	82.93	0.0326578
1028.00	82.86	0.0326480
1032.00	82.79	0.0326706
1036.00	82.73	0.0326529
1040.00	82.66	0.0326427
1044.00	82.59	0.0326411
1048.00	82.53	0.0326079
1052.00	82.46	0.0326005
1056.00	82.39	0.0325667
1060.00	82.33	0.0325898
1064.00	82.26	0.0325958
1068.00	82.19	0.0325959
1072.00	82.13	0.0325639
1076.00	82.06	0.0325656
1080.00	81.99	0.0325474
1084.00	81.93	0.0325782
1088.00	81.86	0.0325707
1092.00	81.79	0.0325650
1096.00	81.73	0.0325535
1100.00	81.66	0.0325495
1104.00	81.59	0.0325402
1108.00	81.53	0.0325248
1112.00	81.46	0.0324924
1116.00	81.39	0.0325379
1120.00	81.33	0.0325214
1124.00	81.26	0.0325504
1128.00	81.19	0.0325603
1132.00	81.13	0.0325184
1136.00	81.06	0.0325261
1140.00	80.99	0.0325103
1144.00	80.93	0.0324822
1148.00	80.86	0.0324313
1152.00	80.79	0.0323902
1156.00	80.73	0.0323578
1160.00	80.66	0.0323375
1164.00	80.59	0.0323609
1168.00	80.53	0.0323195
1172.00	80.46	0.0323200
1176.00	80.39	0.0322925
1180.00	80.33	0.0322828
1184.00	80.26	0.0322710
1188.00	80.19	0.0322689
1192.00	80.13	0.0322585
1196.00	80.06	0.0322427
1200.00	79.99	0.0322724
1204.00	79.93	0.0322857
1208.00	79.86	0.0322564
1212.00	79.79	0.0322692
1216.00	79.73	0.0322415
1220.00	79.66	0.0322419
1224.00	79.59	0.0322156
1228.00	79.53	0.0322623
1232.00	79.46	0.0322858
1236.00	79.39	0.0322436
1240.00	79.33	0.0322324
1244.00	79.26	0.0322127
1248.00	79.19	0.0321714
1252.00	79.13	0.0321568
1256.00	79.06	0.0321323
1260.00	78.99	0.0320833
1264.00	78.93	0.0320891
1268.00	78.86	0.0320530
1272.00	78.79	0.0320689
1276.00	78.73	0.0320658
1280.00	78.66	0.0320545
1284.00	78.59	0.0320495
1288.00	78.53	0.0320869
1292.00	78.46	0.0320474
1296.00	78.39	0.0321053
1300.00	78.33	0.0320798
1304.00	78.26	0.0320531
1308.00	78.19	0.0320481
1312.00	78.13	0.0320778
1316.00	78.06	0.0321019
1320.00	77.99	0.0320631
1324.00	77.93	0.0320306
1328.00	77.86	0.0320319
1332.00	77.79	0.0320246
1336.00	77.73	0.0320156
1340.00	77.66	0.0320090
1344.00	77.59	0.0320117
1348.00	77.53	0.0320257
1352.00	77.46	0.0319718
1356.00	77.39	0.0319474
1360.00	77.33	0.0319269
1364.00	77.26	0.0319295
1368.00	77.20	0.0319047
1372.00	77.13	0.0318948
1376.00	77.06	0.0319004
1380.00	77.00	0.0318738
1384.00	76.93	0.0319244
1388.00	76.86	0.0319288
1392.00	76.79	0.0319107
1396.00	76.73	0.0318701
1400.00	76.66	0.0318640
1404.00	76.59	0.0319042
1408.00	76.53	0.0318904
1412.00	76.46	0.0319006
1416.00	76.39	0.0319187
1420.00	76.33	0.0319174
1424.00	76.26	0.0319117
1428.00	76.19	0.0319384
1432.00	76.13	0.0318916
1436.00	76.06	0.0318517
1440.00	76.00	0.0318285
1444.00	75.93	0.0318025
1448.00	75.86	0.0318268
1452.00	75.79	0.0318404
1456.00	75.73	0.0317925
1460.00	75.66	0.0317686
1464.00	75.60	0.0317695
1468.00	75.53	0.0318091
1472.00	75.46	0.0317761
1476.00	75.40	0.0318219
1480.00	75.33	0.0317863
1484.00	75.26	0.0317792
1488.00	75.19	0.0317896
1492.00	75.13	0.0318141
1496.00	75.06	0.0318165
1500.00	75.00	0.0317785
1504.00	74.93	0.0317588
1508.00	74.86	0.0317351
1512.00	74.79	0.0317170
1516.00	74.73	0.0317158
1520.00	74.66	0.0317294
1524.00	74.59	0.0317270
1528.00	74.53	0.0317371
1532.00	74.46	0.0317266
1536.00	74.39	0.0317136
1540.00	74.33	0.0316901
1544.00	74.26	0.0316796
1548.00	74.20	0.0317168
1552.00	74.13	0.0316917
1556.00	74.06	0.0316622
1560.00	74.00	0.0316468
1564.00	73.93	0.0316484
1568.00	73.86	0.0316533
1572.00	73.80	0.0316281
1576.00	73.73	0.0316601
1580.00	73.66	0.0316126
1584.00	73.60	0.0316188
1588.00	73.53	0.0316344
1592.00	73.46	0.0316627
1596.00	73.40	0.0316326
1600.00	73.33	0.0316033
1604.00	73.26	0.0316002
1608.00	73.19	0.0316354
1612.00	73.13	0.0316396
1616.00	73.06	0.0316210
1620.00	72.99	0.0316031
1624.00	72.93	0.0315766
1628.00	72.86	0.0315898
1632.00	72.80	0.0315670
1636.00	72.73	0.0315742
1640.00	72.66	0.0315149
1644.00	72.59	0.0315095
1648.00	72.53	0.0314860
1652.00	72.46	0.0314750
1656.00	72.40	0.0314538
1660.00	72.33	0.0314919
1664.00	72.26	0.0314954
1668.00	72.20	0.0314944
1672.00	72.13	0.0315085
1676.00	72.06	0.0315073
1680.00	72.00	0.0315127
1684.00	71.93	0.0314947
1688.00	71.86	0.0314856
1692.00	71.80	0.0314639
1696.00	71.73	0.0314459
1700.00	71.66	0.0314061
1704.00	71.60	0.0314414
1708.00	71.53	0.0314100
1712.00	71.46	0.0314181
1716.00	71.39	0.0314175
1720.00	71.33	0.0314203
1724.00	71.26	0.0314123
1728.00	71.20	0.0314072
1732.00	71.13	0.0313903
1736.00	71.06	0.0313621
1740.00	71.00	0.0313821
1744.00	70.93	0.0313812
1748.00	70.86	0.0314082
1752.00	70.80	0.0314195
1756.00	70.73	0.0314311
1760.00	70.66	0.0314174
1764.00	70.60	0.0314000
1768.00	70.53	0.0313835
1772.00	70.46	0.0313745
1776.00	70.40	0.0313355
1780.00	70.33	0.0313443
1784.00	70.26	0.0313506
1788.00	70.20	0.0313700
1792.00	70.13	0.0313435
1796.00	70.06	0.0313675
1800.00	70.00	0.0313659
1804.00	69.93	0.0313720
1808.00	69.86	0.0313646
1812.00	69.80	0.0313600
1816.00	69.73	0.0313426
1820.00	69.66	0.0313452
1824.00	69.60	0.0313219
1828.00	69.53	0.0313357
1832.00	69.46	0.0313265
1836.00	69.40	0.0313003
1840.00	69.33	0.0313165
1844.00	69.26	0.0313308
1848.00	69.20	0.0313300
1852.00	69.13	0.0313580
1856.00	69.06	0.0313308
1860.00	69.00	0.0312928
1864.00	68.93	0.0313286
1868.00	68.86	0.0313974
1872.00	68.80	0.0313590
1876.00	68.73	0.0313924
1880.00	68.66	0.0313831
1884.00	68.59	0.0313803
1888.00	68.53	0.0313731
1892.00	68.46	0.0313542
1896.00	68.40	0.0313446
1900.00	68.33	0.0313125
1904.00	68.26	0.0313274
1908.00	68.20	0.0313292
1912.00	68.13	0.0313334
1916.00	68.06	0.0312997
1920.00	68.00	0.0312898
1924.00	67.93	0.0313556
1928.00	67.86	0.0313170
1932.00	67.79	0.0313487
1936.00	67.73	0.0312968
1940.00	67.66	0.0313161
1944.00	67.60	0.0312975
1948.00	67.53	0.0313000
1952.00	67.46	0.0313290
1956.00	67.40	0.0313327
1960.00	67.33	0.0313219
1964.00	67.26	0.0313274
1968.00	67.20	0.0313589
1972.00	67.13	0.0313337
1976.00	67.06	0.0313411
1980.00	67.00	0.0313416
1984.00	66.93	0.0313264
1988.00	66.86	0.0313294
1992.00	66.80	0.0313408
1996.00	66.73	0.0313050
2000.00	66.66	0.0313319
2004.00	66.60	0.0313190
2008.00	66.53	0.0313110
2012.00	66.46	0.0313127
2016.00	66.40	0.0313364
2020.00	66.33	0.0313420
2024.00	66.26	0.0313195
2028.00	66.20	0.0313047
2032.00	66.13	0.0313615
2036.00	66.06	0.0313425
2040.00	66.00	0.0313682
2044.00	65.93	0.0313630
2048.00	65.86	0.0313988
2052.00	65.80	0.0314050
2056.00	65.73	0.0314178
2060.00	65.66	0.0314330
2064.00	65.60	0.0314246
2068.00	65.53	0.0314200
2072.00	65.46	0.0314425
2076.00	65.40	0.0314381
2080.00	65.33	0.0314812
2084.00	65.26	0.0314712
2088.00	65.20	0.0315302
2092.00	65.13	0.0315743
2096.00	65.06	0.0315501
2100.00	65.00	0.0315443
2104.00	64.93	0.0315588
2108.00	64.86	0.0315651
2112.00	64.80	0.0315613
2116.00	64.73	0.0315561
2120.00	64.66	0.0315688
2124.00	64.60	0.0315454
2128.00	64.53	0.0315990
2132.00	64.46	0.0316004
2136.00	64.40	0.0316365
2140.00	64.33	0.0316905
2144.00	64.26	0.0317338
2148.00	64.20	0.0317141
2152.00	64.13	0.0317173
2156.00	64.06	0.0317825
2160.00	64.00	0.0317923
2164.00	63.93	0.0318253
2168.00	63.86	0.0318289
2172.00	63.80	0.0318550
2176.00	63.73	0.0318981
2180.00	63.66	0.0319017
2184.00	63.60	0.0319270
2188.00	63.53	0.0319454
2192.00	63.46	0.0319970
2196.00	63.40	0.0320209
2200.00	63.33	0.0321149
2204.00	63.26	0.0320994
2208.00	63.20	0.0321328
2212.00	63.13	0.0321439
2216.00	63.06	0.0321731
2220.00	63.00	0.0321904
2224.00	62.93	0.0322191
2228.00	62.86	0.0322401
2232.00	62.80	0.0322985
2236.00	62.73	0.0323676
2240.00	62.66	0.0324195
2244.00	62.60	0.0325059
2248.00	62.53	0.0325541
2252.00	62.47	0.0325754
2256.00	62.40	0.0326708
2260.00	62.33	0.0327281
2264.00	62.26	0.0328306
2268.00	62.20	0.0329017
2272.00	62.13	0.0330304
2276.00	62.07	0.0334788
2280.00	62.00	0.0350577
2284.00	61.93	0.0359603
2288.00	61.87	0.0367101
2292.00	61.80	0.0372654
2296.00	61.73	0.0377141
2300.00	61.67	0.0380296
2304.00	61.60	0.0382537
2308.00	61.53	0.0383754
2312.00	61.47	0.0384698
2316.00	61.40	0.0384824
2320.00	61.33	0.0385206
2324.00	61.27	0.0385618
2328.00	61.20	0.0385645
2332.00	61.13	0.0385273
2336.00	61.07	0.0385137
2340.00	61.00	0.0384870
2344.00	60.93	0.0384730
2348.00	60.87	0.0384681
2352.00	60.80	0.0384218
2356.00	60.73	0.0384479
2360.00	60.67	0.0384642
2364.00	60.60	0.0383893
2368.00	60.53	0.0384093
2372.00	60.47	0.0384267
2376.00	60.40	0.0384202
2380.00	60.34	0.0384874
2384.00	60.27	0.0385131
2388.00	60.20	0.0385769
2392.00	60.13	0.0385785
2396.00	60.07	0.0386281
2400.00	60.00	0.0387149
2404.00	59.94	0.0387721
2408.00	59.87	0.0389192
2412.00	59.80	0.0390467
2416.00	59.74	0.0392068
2420.00	59.67	0.0393431
2424.00	59.60	0.0395455
2428.00	59.54	0.0397822
2432.00	59.47	0.0399276
2436.00	59.44	0.0770590
2440.00	59.40	0.140382
2444.00	59.34	0.172709
2448.00	59.27	0.181095
2452.00	59.17	0.136991
2456.00	59.09	0.0938395
2460.00	59.01	0.0711067
2464.00	58.94	0.0578269
2468.00	58.88	0.0538393
2472.00	58.81	0.0515541
2476.00	58.74	0.0504233
2480.00	58.67	0.0501689
2484.00	58.61	0.0500409
2488.00	58.54	0.0496745
2492.00	58.47	0.0490118
2496.00	58.40	0.0481673
2500.00	58.34	0.0472708
2504.00	58.27	0.0463471
2508.00	58.20	0.0454800
2512.00	58.14	0.0446307
2516.00	58.07	0.0439379
2520.00	58.00	0.0433285
2524.00	57.94	0.0428643
2528.00	57.87	0.0424831
2532.00	57.80	0.0422334
2536.00	57.74	0.0421485
2540.00	57.67	0.0423183
2544.00	57.61	0.0427492
2548.00	57.54	0.0430358
2552.00	57.47	0.0428909
2556.00	57.40	0.0424522
2560.00	57.34	0.0417041
2564.00	57.27	0.0409077
2568.00	57.20	0.0400935
2572.00	57.13	0.0392927
2576.00	57.07	0.0385354
2580.00	57.00	0.0378323
2584.00	56.93	0.0372366
2588.00	56.87	0.0366999
2592.00	56.80	0.0362078
2596.00	56.73	0.0358120
2600.00	56.67	0.0354606
2604.00	56.60	0.0351464
2608.00	56.53	0.0348866
2612.00	56.47	0.0345889
2616.00	56.40	0.0343188
2620.00	56.33	0.0341465
2624.00	56.27	0.0339651
2628.00	56.20	0.0338495
2632.00	56.13	0.0336547
2636.00	56.07	0.0335262
2640.00	56.00	0.0333675
2644.00	55.93	0.0332462
2648.00	55.87	0.0330958
2652.00	55.80	0.0329560
2656.00	55.73	0.0328695
2660.00	55.67	0.0327624
2664.00	55.60	0.0326597
2668.00	55.53	0.0325759
2672.00	55.47	0.0324731
2676.00	55.40	0.0324040
2680.00	55.33	0.0323148
2684.00	55.27	0.0322328
2688.00	55.20	0.0321541
2692.00	55.13	0.0320526
2696.00	55.07	0.0319889
2700.00	55.00	0.0319266
2704.00	54.93	0.0318464
2708.00	54.86	0.0317894
2712.00	54.80	0.0317143
2716.00	54.73	0.0316625
2720.00	54.67	0.0315775
2724.00	54.60	0.0315281
2728.00	54.53	0.0314681
2732.00	54.47	0.0314014
2736.00	54.40	0.0313566
2740.00	54.33	0.0312955
2744.00	54.27	0.0312269
2748.00	54.20	0.0312168
2752.00	54.13	0.0311809
2756.00	54.07	0.0311197
2760.00	54.00	0.0310631
2764.00	53.93	0.0309653
2768.00	53.87	0.0308992
2772.00	53.80	0.0309074
2776.00	53.73	0.0308796
2780.00	53.67	0.0308126
2784.00	53.60	0.0307546
2788.00	53.53	0.0307069
2792.00	53.47	0.0306388
2796.00	53.40	0.0305716
2800.00	53.33	0.0305376
2804.00	53.27	0.0304818
2808.00	53.20	0.0304478
2812.00	53.13	0.0304064
2816.00	53.07	0.0304086
2820.00	53.00	0.0303319
2824.00	52.93	0.0303270
2828.00	52.87	0.0302741
2832.00	52.80	0.0302177
2836.00	52.73	0.0301660
2840.00	52.67	0.0301275
2844.00	52.60	0.0301130
2848.00	52.53	0.0300742
2852.00	52.47	0.0300306
2856.00	52.40	0.0299906
2860.00	52.33	0.0299645
2864.00	52.26	0.0299136
2868.00	52.20	0.0298863
2872.00	52.13	0.0298553
2876.00	52.07	0.0298471
2880.00	52.00	0.0298220
2884.00	51.93	0.0297631
2888.00	51.87	0.0297503
2892.00	51.80	0.0297278
2896.00	51.73	0.0296767
2900.00	51.66	0.0296762
2904.00	51.60	0.0296779
2908.00	51.53	0.0296289
2912.00	51.46	0.0296076
2916.00	51.40	0.0295652
2920.00	51.33	0.0295228
2924.00	51.27	0.0294735
2928.00	51.20	0.0294307
2932.00	51.13	0.0293864
2936.00	51.06	0.0293634
2940.00	51.00	0.0293591
2944.00	50.93	0.0293002
2948.00	50.86	0.0293058
2952.00	50.80	0.0292682
2956.00	50.73	0.0292123
2960.00	50.67	0.0292023
2964.00	50.60	0.0291745
2968.00	50.53	0.0291339
2972.00	50.46	0.0291228
2976.00	50.40	0.0290801
2980.00	50.33	0.0290613
2984.00	50.26	0.0290221
2988.00	50.20	0.0290075
2992.00	50.13	0.0289583
2996.00	50.07	0.0289804
3000.00	50.00	0.0289378
3004.00	49.93	0.0289324
3008.00	49.86	0.0289100
3012.00	49.80	0.0288799
3016.00	49.73	0.0288566
3020.00	49.66	0.0287945
3024.00	49.60	0.0287826
3028.00	49.53	0.0287148
3032.00	49.47	0.0287025
3036.00	49.40	0.0286727
3040.00	49.33	0.0286458
3044.00	49.27	0.0286192
3048.00	49.20	0.0285728
3052.00	49.13	0.0285423
3056.00	49.07	0.0285532
3060.00	49.00	0.0285652
3064.00	48.93	0.0285796
3068.00	48.87	0.0285824
3072.00	48.80	0.0285792
3076.00	48.73	0.0285549
3080.00	48.66	0.0285423
3084.00	48.60	0.0285259
3088.00	48.53	0.0284973
3092.00	48.46	0.0284863
3096.00	48.40	0.0284243
3100.00	48.33	0.0283863
3104.00	48.27	0.0283680
3108.00	48.20	0.0283330
3112.00	48.13	0.0283062
3116.00	48.06	0.0282297
3120.00	48.00	0.0281706
3124.00	47.93	0.0281415
3128.00	47.87	0.0281548
3132.00	47.80	0.0281368
3136.00	47.73	0.0281337
3140.00	47.66	0.0281207
3144.00	47.60	0.0281359
3148.00	47.53	0.0281315
3152.00	47.46	0.0281273
3156.00	47.40	0.0281410
3160.00	47.33	0.0281398
3164.00	47.26	0.0281088
3168.00	47.20	0.0280453
3172.00	47.13	0.0279892
3176.00	47.07	0.0279272
3180.00	47.00	0.0278995
3184.00	46.93	0.0278243
3188.00	46.87	0.0277971
3192.00	46.80	0.0277668
3196.00	46.73	0.0277453
3200.00	46.67	0.0276885
3204.00	46.60	0.0276796
3208.00	46.53	0.0276824
3212.00	46.47	0.0276423
3216.00	46.40	0.0276185
3220.00	46.33	0.0276118
3224.00	46.27	0.0276021
3228.00	46.20	0.0276345
3232.00	46.13	0.0276006
3236.00	46.06	0.0276446
3240.00	46.00	0.0276131
3244.00	45.93	0.0275810
3248.00	45.86	0.0275713
3252.00	45.80	0.0275774
3256.00	45.73	0.0275686
3260.00	45.66	0.0275337
3264.00	45.60	0.0274692
3268.00	45.53	0.0274307
3272.00	45.47	0.0273874
3276.00	45.40	0.0273520
3280.00	45.33	0.0273534
3284.00	45.26	0.0273346
3288.00	45.20	0.0273334
3292.00	45.13	0.0273432
3296.00	45.06	0.0273315
3300.00	45.00	0.0273200
3304.00	44.93	0.0272746
3308.00	44.87	0.0272673
3312.00	44.80	0.0272471
3316.00	44.73	0.0272490
3320.00	44.67	0.0272439
3324.00	44.60	0.0272335
3328.00	44.53	0.0272325
3332.00	44.47	0.0272185
3336.00	44.40	0.0271855
3340.00	44.33	0.0271660
3344.00	44.26	0.0271620
3348.00	44.20	0.0271135
3352.00	44.13	0.0270879
3356.00	44.06	0.0270672
3360.00	44.00	0.0270505
3364.00	43.93	0.0270244
3368.00	43.86	0.0269494
3372.00	43.80	0.0269471
3376.00	43.73	0.0269443
3380.00	43.66	0.0269262
3384.00	43.60	0.0269223
3388.00	43.53	0.0268786
3392.00	43.46	0.0268419
3396.00	43.40	0.0268426
3400.00	43.33	0.0268566
3404.00	43.26	0.0268422
3408.00	43.20	0.0268119
3412.00	43.13	0.0268108
3416.00	43.06	0.0268066
3420.00	43.00	0.0267851
3424.00	42.93	0.0267757
3428.00	42.86	0.0267665
3432.00	42.80	0.0267642
3436.00	42.73	0.0267362
3440.00	42.66	0.0266929
3444.00	42.60	0.0266670
3448.00	42.53	0.0266692
3452.00	42.46	0.0266432
3456.00	42.40	0.0266136
3460.00	42.33	0.0265893
3464.00	42.26	0.0265557
3468.00	42.20	0.0265227
3472.00	42.13	0.0264991
3476.00	42.07	0.0265146
3480.00	42.00	0.0265067
3484.00	41.93	0.0264753
3488.00	41.86	0.0264809
3492.00	41.80	0.0264498
3496.00	41.73	0.0264103
3500.00	41.66	0.0264160
3504.00	41.60	0.0263881
3508.00	41.53	0.0263604
3512.00	41.46	0.0263445
3516.00	41.40	0.0263107
3520.00	41.33	0.0263026
3524.00	41.26	0.0263049
3528.00	41.20	0.0262996
3532.00	41.13	0.0262616
3536.00	41.07	0.0262454
3540.00	41.00	0.0261949
3544.00	40.93	0.0262220
3548.00	40.86	0.0261996
3552.00	40.80	0.0262149
3556.00	40.73	0.0262024
3560.00	40.66	0.0262153
3564.00	40.60	0.0261809
3568.00	40.53	0.0261405
3572.00	40.47	0.0261046
3576.00	40.40	0.0261153
3580.00	40.33	0.0261117
3584.00	40.27	0.0261199
3588.00	40.20	0.0261378
3592.00	40.13	0.0261390
3596.00	40.06	0.0261247
3600.00	40.00	0.0260556
3604.00	39.93	0.0260411
3608.00	39.87	0.0259878
3612.00	39.80	0.0259586
3616.00	39.73	0.0259713
3620.00	39.67	0.0259825
3624.00	39.60	0.0259806
3628.00	39.53	0.0259391
3632.00	39.47	0.0259269
3636.00	39.40	0.0258718
3640.00	39.33	0.0258369
3644.00	39.27	0.0258057
3648.00	39.20	0.0257766
3652.00	39.13	0.0257530
3656.00	39.06	0.0257736
3660.00	39.00	0.0257798
3664.00	38.93	0.0257765
3668.00	38.86	0.0257698
3672.00	38.80	0.0257584
3676.00	38.73	0.0257319
3680.00	38.66	0.0256789
3684.00	38.60	0.0256815
3688.00	38.53	0.0256452
3692.00	38.46	0.0256264
3696.00	38.40	0.0256134
3700.00	38.33	0.0255884
3704.00	38.26	0.0255989
3708.00	38.20	0.0255523
3712.00	38.13	0.0255434
3716.00	38.06	0.0255238
3720.00	38.00	0.0255170
3724.00	37.93	0.0254870
3728.00	37.86	0.0254970
3732.00	37.80	0.0255013
3736.00	37.73	0.0255038
3740.00	37.66	0.0254953
3744.00	37.60	0.0254689
3748.00	37.53	0.0254513
3752.00	37.47	0.0254212
3756.00	37.40	0.0253988
3760.00	37.33	0.0253772
3764.00	37.27	0.0253657
3768.00	37.20	0.0253795
3772.00	37.13	0.0253619
3776.00	37.07	0.0253316
3780.00	37.00	0.0253134
3784.00	36.93	0.0253193
3788.00	36.86	0.0253083
3792.00	36.80	0.0253062
3796.00	36.73	0.0252987
3800.00	36.66	0.0252907
3804.00	36.60	0.0252965
3808.00	36.53	0.0252547
3812.00	36.46	0.0252381
3816.00	36.40	0.0252376
3820.00	36.33	0.0252323
3824.00	36.26	0.0252325
3828.00	36.20	0.0252287
3832.00	36.13	0.0251789
3836.00	36.06	0.0251170
3840.00	36.00	0.0250860
3844.00	35.93	0.0250425
3848.00	35.87	0.0250026
3852.00	35.80	0.0249710
3856.00	35.73	0.0249204
3860.00	35.67	0.0249513
3864.00	35.60	0.0249321
3868.00	35.53	0.0249329
3872.00	35.47	0.0248946
3876.00	35.40	0.0248719
3880.00	35.33	0.0248525
3884.00	35.27	0.0248539
3888.00	35.20	0.0248411
3892.00	35.13	0.0248152
3896.00	35.07	0.0248244
3900.00	35.00	0.0247994
3904.00	34.93	0.0247929
3908.00	34.87	0.0247839
3912.00	34.80	0.0247811
3916.00	34.73	0.0247640
3920.00	34.67	0.0247502
3924.00	34.60	0.0247191
3928.00	34.53	0.0247184
3932.00	34.47	0.0246924
3936.00	34.40	0.0246589
3940.00	34.33	0.0246602
3944.00	34.27	0.0246575
3948.00	34.20	0.0246494
3952.00	34.13	0.0246478
3956.00	34.06	0.0246388
3960.00	34.00	0.0246279
3964.00	33.93	0.0246039
3968.00	33.86	0.0246066
3972.00	33.80	0.0245927
3976.00	33.73	0.0245577
3980.00	33.67	0.0245284
3984.00	33.60	0.0245169
3988.00	33.53	0.0244931
3992.00	33.47	0.0244839
3996.00	33.40	0.0244870
4000.00	33.33	0.0244526
4004.00	33.26	0.0244292
4008.00	33.20	0.0244338
4012.00	33.13	0.0244145
4016.00	33.06	0.0243923
4020.00	33.00	0.0243694
4024.00	32.93	0.0243739
4028.00	32.86	0.0243474
4032.00	32.80	0.0243557
4036.00	32.73	0.0243055
4040.00	32.67	0.0243081
4044.00	32.60	0.0242733
4048.00	32.53	0.0242924
4052.00	32.47	0.0243028
4056.00	32.40	0.0242849
4060.00	32.33	0.0242586
4064.00	32.27	0.0242570
4068.00	32.20	0.0242304
4072.00	32.13	0.0242306
4076.00	32.07	0.0242324
4080.00	32.00	0.0242237
4084.00	31.93	0.0241856
4088.00	31.86	0.0241623
4092.00	31.80	0.0241406
4096.00	31.73	0.0241173
4100.00	31.66	0.0240629
4104.00	31.60	0.0240711
4108.00	31.53	0.0240696
4112.00	31.47	0.0240674
4116.00	31.40	0.0240479
4120.00	31.33	0.0240430
4124.00	31.27	0.0240099
4128.00	31.20	0.0239948
4132.00	31.13	0.0240034
4136.00	31.07	0.0240205
4140.00	31.00	0.0240031
4144.00	30.93	0.0239455
4148.00	30.86	0.0239196
4152.00	30.80	0.0239003
4156.00	30.73	0.0239213
4160.00	30.67	0.0239215
4164.00	30.60	0.0239189
4168.00	30.53	0.0238996
4172.00	30.46	0.0239267
4176.00	30.40	0.0238956
4180.00	30.33	0.0239115
4184.00	30.27	0.0239293
4188.00	30.20	0.0239123
4192.00	30.13	0.0239400
4196.00	30.06	0.0239008
4200.00	30.00	0.0238780
4204.00	29.93	0.0238910
4208.00	29.87	0.0238974
4212.00	29.80	0.0239539
4216.00	29.73	0.0239621
4220.00	29.67	0.0240024
4224.00	29.60	0.0240456
4228.00	29.53	0.0242732
4232.00	29.47	0.0257186
4236.00	29.41	0.0285128
4240.00	29.34	0.0386066
4244.00	29.29	0.0430055
4248.00	29.30	0.0687450
4252.00	29.37	0.333315
4256.00	29.40	0.579941
4260.00	29.37	0.701518
4264.00	29.29	0.712678
4268.00	29.21	0.681147
4272.00	29.13	0.642264
4276.00	29.05	0.620694
4280.00	28.99	0.619316
4284.00	28.93	0.613915
4288.00	28.87	0.645150
4292.00	28.83	0.672546
4296.00	28.80	0.739753
4300.00	28.77	0.806168
4304.00	28.70	0.859943
4308.00	28.56	0.795236
4312.00	28.36	0.556086
4316.00	28.20	0.328504
4320.00	28.08	0.208729
4324.00	27.98	0.133071
4328.00	27.89	0.0878958
4332.00	27.81	0.0605830
4336.00	27.74	0.0450124
4340.00	27.67	0.0367449
4344.00	27.60	0.0324835
4348.00	27.53	0.0305277
4352.00	27.47	0.0289944
4356.00	27.40	0.0280921
4360.00	27.33	0.0272608
4364.00	27.27	0.0264803
4368.00	27.20	0.0258395
4372.00	27.13	0.0252220
4376.00	27.06	0.0247473
4380.00	27.00	0.0243144
4384.00	26.93	0.0239772
4388.00	26.87	0.0236816
4392.00	26.80	0.0234344
4396.00	26.73	0.0232170
4400.00	26.67	0.0229754
4404.00	26.60	0.0228400
4408.00	26.53	0.0226665
4412.00	26.46	0.0225675
4416.00	26.40	0.0224244
4420.00	26.33	0.0223224
4424.00	26.26	0.0222039
4428.00	26.20	0.0220897
4432.00	26.13	0.0219865
4436.00	26.06	0.0219024
4440.00	26.00	0.0218450
4444.00	25.93	0.0217777
4448.00	25.86	0.0217117
4452.00	25.80	0.0216698
4456.00	25.73	0.0215733
4460.00	25.66	0.0214894
4464.00	25.60	0.0214148
4468.00	25.53	0.0213979
4472.00	25.47	0.0213155
4476.00	25.40	0.0212372
4480.00	25.33	0.0211840
4484.00	25.27	0.0211436
4488.00	25.20	0.0210710
4492.00	25.13	0.0210331
4496.00	25.06	0.0209706
4500.00	25.00	0.0209218
4504.00	24.93	0.0208899
4508.00	24.86	0.0208443
4512.00	24.80	0.0208185
4516.00	24.73	0.0207513
4520.00	24.66	0.0207145
4524.00	24.60	0.0206817
4528.00	24.53	0.0206542
4532.00	24.46	0.0206184
4536.00	24.40	0.0205991
4540.00	24.33	0.0205424
4544.00	24.27	0.0205165
4548.00	24.20	0.0204632
4552.00	24.13	0.0204167
4556.00	24.06	0.0203687
4560.00	24.00	0.0203556
4564.00	23.93	0.0203276
4568.00	23.86	0.0202452
4572.00	23.80	0.0202354
4576.00	23.73	0.0201860
4580.00	23.66	0.0201737
4584.00	23.60	0.0201442
4588.00	23.53	0.0200920
4592.00	23.46	0.0201122
4596.00	23.40	0.0200432
4600.00	23.33	0.0200039
4604.00	23.26	0.0199626
4608.00	23.20	0.0199588
4612.00	23.13	0.0199399
4616.00	23.06	0.0198951
4620.00	23.00	0.0198720
4624.00	22.93	0.0198231
4628.00	22.86	0.0198013
4632.00	22.80	0.0197611
4636.00	22.73	0.0197506
4640.00	22.66	0.0197005
4644.00	22.60	0.0196822
4648.00	22.53	0.0196328
4652.00	22.46	0.0196252
4656.00	22.40	0.0196103
4660.00	22.33	0.0195946
4664.00	22.26	0.0195530
4668.00	22.20	0.0195393
4672.00	22.13	0.0195010
4676.00	22.07	0.0194726
4680.00	22.00	0.0194513
4684.00	21.93	0.0194600
4688.00	21.86	0.0194356
4692.00	21.80	0.0194129
4696.00	21.73	0.0194151
4700.00	21.66	0.0193816
4704.00	21.60	0.0193455
4708.00	21.53	0.0193002
4712.00	21.46	0.0192686
4716.00	21.40	0.0192569
4720.00	21.33	0.0192405
4724.00	21.26	0.0192010
4728.00	21.20	0.0191620
4732.00	21.13	0.0191397
4736.00	21.06	0.0190814
4740.00	21.00	0.0190511
4744.00	20.93	0.0190431
4748.00	20.86	0.0190343
4752.00	20.80	0.0190411
4756.00	20.73	0.0190034
4760.00	20.66	0.0189493
4764.00	20.60	0.0188987
4768.00	20.53	0.0188462
4772.00	20.46	0.0188392
4776.00	20.40	0.0188121
4780.00	20.33	0.0188255
4784.00	20.26	0.0187941
4788.00	20.20	0.0187768
4792.00	20.13	0.0187863
4796.00	20.06	0.0187848
4800.00	20.00	0.0187618
4804.00	19.93	0.0187348
4808.00	19.86	0.0187335
4812.00	19.80	0.0186679
4816.00	19.73	0.0186283
4820.00	19.66	0.0186013
4824.00	19.60	0.0185682
4828.00	19.53	0.0185647
4832.00	19.46	0.0185254
4836.00	19.40	0.0184906
4840.00	19.33	0.0184913
4844.00	19.26	0.0184843
4848.00	19.20	0.0184492
4852.00	19.13	0.0184256
4856.00	19.06	0.0184197
4860.00	19.00	0.0184038
4864.00	18.93	0.0183809
4868.00	18.86	0.0183565
4872.00	18.80	0.0183745
4876.00	18.73	0.0183428
4880.00	18.66	0.0183206
4884.00	18.60	0.0183007
4888.00	18.53	0.0182677
4892.00	18.46	0.0182299
4896.00	18.40	0.0181889
4900.00	18.33	0.0181473
4904.00	18.26	0.0181300
4908.00	18.20	0.0180728
4912.00	18.13	0.0180542
4916.00	18.06	0.0180204
4920.00	18.00	0.0180216
4924.00	17.93	0.0180002
4928.00	17.86	0.0179677
4932.00	17.80	0.0179430
4936.00	17.73	0.0179291
4940.00	17.66	0.0179273
4944.00	17.60	0.0179149
4948.00	17.53	0.0178534
4952.00	17.46	0.0178506
4956.00	17.40	0.0178127
4960.00	17.33	0.0177902
4964.00	17.26	0.0177541
4968.00	17.20	0.0177642
4972.00	17.13	0.0177751
4976.00	17.06	0.0177600
4980.00	17.00	0.0177329
4984.00	16.93	0.0177307
4988.00	16.86	0.0176782
4992.00	16.80	0.0176689
4996.00	16.73	0.0176595
5000.00	16.66	0.0176379
5004.00	16.60	0.0176760
5008.00	16.53	0.0176024
5012.00	16.46	0.0175804
5016.00	16.40	0.0175607
5020.00	16.33	0.0175195
5024.00	16.26	0.0175049
5028.00	16.20	0.0174898
5032.00	16.13	0.0174585
5036.00	16.06	0.0174675
5040.00	16.00	0.0174519
5044.00	15.93	0.0174238
5048.00	15.86	0.0174193
5052.00	15.80	0.0174077
5056.00	15.73	0.0173926
5060.00	15.66	0.0173889
5064.00	15.60	0.0173515
5068.00	15.53	0.0173336
5072.00	15.46	0.0173269
5076.00	15.40	0.0173359
5080.00	15.33	0.0173283
5084.00	15.26	0.0173528
5088.00	15.20	0.0173364
5092.00	15.13	0.0172897
5096.00	15.06	0.0172396
5100.00	15.00	0.0171943
5104.00	14.93	0.0171746
5108.00	14.86	0.0171386
5112.00	14.80	0.0171502
5116.00	14.73	0.0171413
5120.00	14.66	0.0171077
5124.00	14.60	0.0170816
5128.00	14.53	0.0170483
5132.00	14.46	0.0170321
5136.00	14.40	0.0169913
5140.00	14.33	0.0169544
5144.00	14.26	0.0169511
5148.00	14.20	0.0169508
5152.00	14.13	0.0169470
5156.00	14.06	0.0169218
5160.00	14.00	0.0169115
5164.00	13.93	0.0168923
5168.00	13.86	0.0168801
5172.00	13.80	0.0168395
5176.00	13.73	0.0168420
5180.00	13.66	0.0168354
5184.00	13.60	0.0167779
5188.00	13.53	0.0167400
5192.00	13.46	0.0167216
5196.00	13.40	0.0166962
5200.00	13.33	0.0166585
5204.00	13.26	0.0166498
5208.00	13.20	0.0166290
5212.00	13.13	0.0166164
5216.00	13.06	0.0165950
5220.00	13.00	0.0165741
5224.00	12.93	0.0165751
5228.00	12.87	0.0165460
5232.00	12.80	0.0165210
5236.00	12.73	0.0165440
5240.00	12.66	0.0165765
5244.00	12.60	0.0165347
5248.00	12.53	0.0165494
5252.00	12.46	0.0165449
5256.00	12.40	0.0165130
5260.00	12.33	0.0164512
5264.00	12.26	0.0164597
5268.00	12.20	0.0164397
5272.00	12.13	0.0164361
5276.00	12.06	0.0164144
5280.00	12.00	0.0163803
5284.00	11.93	0.0163978
5288.00	11.86	0.0163589
5292.00	11.80	0.0163263
5296.00	11.73	0.0163129
5300.00	11.66	0.0162643
5304.00	11.60	0.0162315
5308.00	11.53	0.0162142
5312.00	11.46	0.0161686
5316.00	11.40	0.0161912
5320.00	11.33	0.0161508
5324.00	11.26	0.0161787
5328.00	11.20	0.0161498
5332.00	11.13	0.0161373
5336.00	11.06	0.0161065
5340.00	11.00	0.0160471
5344.00	10.93	0.0160531
5348.00	10.86	0.0160271
5352.00	10.80	0.0159963
5356.00	10.73	0.0159695
5360.00	10.66	0.0159575
5364.00	10.60	0.0159604
5368.00	10.53	0.0159265
5372.00	10.46	0.0159417
5376.00	10.40	0.0159100
5380.00	10.33	0.0158659
5384.00	10.26	0.0158474
5388.00	10.20	0.0158368
5392.00	10.13	0.0158545
5396.00	10.06	0.0158085
5400.00	10.00	0.0157962
5404.00	9.93	0.0157626
5408.00	9.86	0.0157075
5412.00	9.80	0.0157068
5416.00	9.73	0.0156883
5420.00	9.66	0.0156766
5424.00	9.60	0.0156739
5428.00	9.53	0.0156777
5432.00	9.46	0.0156370
5436.00	9.40	0.0156321
5440.00	9.33	0.0156367
5444.00	9.26	0.0155930
5448.00	9.20	0.0155892
5452.00	9.13	0.0156137
5456.00	9.07	0.0155762
5460.00	9.00	0.0155558
5464.00	8.93	0.0155538
5468.00	8.86	0.0155224
5472.00	8.80	0.0155023
5476.00	8.73	0.0154717
5480.00	8.66	0.0154265
5484.00	8.60	0.0154415
5488.00	8.53	0.0154102
5492.00	8.46	0.0154008
5496.00	8.40	0.0153700
5500.00	8.33	0.0153733
5504.00	8.26	0.0153101
5508.00	8.20	0.0153040
5512.00	8.13	0.0152909
5516.00	8.06	0.0152820
5520.00	8.00	0.0152539
5524.00	7.93	0.0152285
5528.00	7.86	0.0152299
5532.00	7.80	0.0152105
5536.00	7.73	0.0152085
5540.00	7.66	0.0151992
5544.00	7.60	0.0151812
5548.00	7.53	0.0151791
5552.00	7.46	0.0151381
5556.00	7.40	0.0151190
5560.00	7.33	0.0150948
5564.00	7.26	0.0150717
5568.00	7.20	0.0150809
5572.00	7.13	0.0150447
5576.00	7.06	0.0150108
5580.00	7.00	0.0149939
5584.00	6.93	0.0149836
5588.00	6.86	0.0149890
5592.00	6.80	0.0149947
5596.00	6.73	0.0149631
5600.00	6.66	0.0149474
5604.00	6.60	0.0149063
5608.00	6.53	0.0148388
5612.00	6.46	0.0148272
5616.00	6.40	0.0148078
5620.00	6.33	0.0147778
5624.00	6.26	0.0147610
5628.00	6.20	0.0147519
5632.00	6.13	0.0147381
5636.00	6.06	0.0147474
5640.00	6.00	0.0147476
5644.00	5.93	0.0147341
5648.00	5.86	0.0147008
5652.00	5.80	0.0147128
5656.00	5.73	0.0146905
5660.00	5.66	0.0146970
5664.00	5.60	0.0146860
5668.00	5.53	0.0146723
5672.00	5.46	0.0146445
5676.00	5.40	0.0146135
5680.00	5.33	0.0146327
5684.00	5.26	0.0146030
5688.00	5.20	0.0145796
5692.00	5.13	0.0145786
5696.00	5.06	0.0145685
5700.00	5.00	0.0145101
5704.00	4.93	0.0144816
5708.00	4.86	0.0144565
5712.00	4.80	0.0144704
5716.00	4.73	0.0144069
5720.00	4.66	0.0144010
5724.00	4.60	0.0144092
5728.00	4.53	0.0143817
5732.00	4.46	0.0143477
5736.00	4.40	0.0143372
5740.00	4.33	0.0143119
5744.00	4.26	0.0143032
5748.00	4.20	0.0142986
5752.00	4.13	0.0142883
5756.00	4.06	0.0143025
5760.00	4.00	0.0142775
5764.00	3.93	0.0142744
5768.00	3.86	0.0142415
5772.00	3.80	0.0142145
5776.00	3.73	0.0142102
5780.00	3.66	0.0142223
5784.00	3.60	0.0141946
5788.00	3.53	0.0142009
5792.00	3.46	0.0141864
5796.00	3.40	0.0141374
5800.00	3.33	0.0141126
5804.00	3.26	0.0140886
5808.00	3.20	0.0140743
5812.00	3.13	0.0140661
5816.00	3.06	0.0140445
5820.00	3.00	0.0140462
5824.00	2.93	0.0140263
5828.00	2.86	0.0140005
5832.00	2.80	0.0140031
5836.00	2.73	0.0139714
5840.00	2.66	0.0139426
5844.00	2.60	0.0139310
5848.00	2.53	0.0139431
5852.00	2.46	0.0139751
5856.00	2.40	0.0139619
5860.00	2.33	0.0139639
5864.00	2.26	0.0139367
5868.00	2.20	0.0139361
5872.00	2.13	0.0138975
5876.00	2.06	0.0138804
5880.00	2.00	0.0138698
5884.00	1.93	0.0138671
5888.00	1.86	0.0138580
5892.00	1.80	0.0138624
5896.00	1.73	0.0138717
5900.00	1.66	0.0138244
5904.00	1.60	0.0138246
5908.00	1.53	0.0137968
5912.00	1.46	0.0137696
5916.00	1.40	0.0138063
5920.00	1.33	0.0138063
5924.00	1.26	0.0137800
5928.00	1.20	0.0137834
5932.00	1.13	0.0137669
5936.00	1.06	0.0137420
5940.00	1.00	0.0137398
5944.00	0.93	0.0137112
5948.00	0.86	0.0137026
5952.00	0.80	0.0137084
5956.00	0.73	0.0137026
5960.00	0.66	0.0136827
5964.00	0.60	0.0136730
5968.00	0.53	0.0136433
5972.00	0.46	0.0136501
5976.00	0.40	0.0136579
5980.00	0.33	0.0136425
5984.00	0.26	0.0136249
5988.00	0.20	0.0136100
5992.00	0.13	0.0136236
5996.00	0.06	0.0136138
5999.90	0.00	0.0136134